trial,stimWord,stimColor,leftWord,leftColor,rightWord,rightColor,response,stimImage,leftImage,rightImage,condition,stroop_all_loop.thisRepN,stroop_all_loop.thisTrialN,stroop_all_loop.thisN,stroop_all_loop.thisIndex,pracTOreal_loop.thisRepN,pracTOreal_loop.thisTrialN,pracTOreal_loop.thisN,pracTOreal_loop.thisIndex,extra_ins.thisRepN,extra_ins.thisTrialN,extra_ins.thisN,extra_ins.thisIndex,stroop_trials_loop.thisRepN,stroop_trials_loop.thisTrialN,stroop_trials_loop.thisN,stroop_trials_loop.thisIndex,resp_corr,Stroop_crnt_score,Stroop_mouse.x,Stroop_mouse.y,Stroop_mouse.leftButton,Stroop_mouse.midButton,Stroop_mouse.rightButton,Stroop_mouse.clicked_name,color_word_final_score,emotion_final_score,gain_loss_final_score,participant,date,expName,psychopyVersion,frameRate,
None,RED,darkred,BLUE,darkblue,RED,darkred,buttonB,transparent.png,None,None,,0,0,0,0,0,0,0,0,,,,,0,0,0,325,1,1,0.3838095238095238,-0.22952380952380952,1,0,0,buttonB,,,,,2024_Mar_02_1253,Stroop_Squared_all_3,2021.2.3,59.82049067488149,
None,RED,darkblue,RED,darkred,BLUE,darkblue,buttonB,transparent.png,None,None,,0,0,0,0,0,0,0,0,,,,,0,1,1,312,1,2,0.37523809523809526,-0.26857142857142857,1,0,0,buttonB,,,,,2024_Mar_02_1253,Stroop_Squared_all_3,2021.2.3,59.82049067488149,
None,RED,darkblue,RED,darkred,BLUE,darkblue,buttonB,transparent.png,None,None,,0,0,0,0,0,0,0,0,,,,,0,2,2,380,0,1,-0.4685714285714286,-0.19428571428571428,1,0,0,buttonA,,,,,2024_Mar_02_1253,Stroop_Squared_all_3,2021.2.3,59.82049067488149,
None,BLUE,darkred,BLUE,darkred,RED,darkblue,buttonB,transparent.png,None,None,,0,0,0,0,0,0,0,0,,,,,0,3,3,34,0,0,-0.4685714285714286,-0.19428571428571428,1,0,0,buttonA,,,,,2024_Mar_02_1253,Stroop_Squared_all_3,2021.2.3,59.82049067488149,
None,RED,darkblue,BLUE,darkblue,RED,darkred,buttonA,transparent.png,None,None,,0,0,0,0,0,0,0,0,,,,,0,4,4,49,1,1,-0.4685714285714286,-0.19428571428571428,1,0,0,buttonA,,,,,2024_Mar_02_1253,Stroop_Squared_all_3,2021.2.3,59.82049067488149,
None,BLUE,darkred,BLUE,darkred,RED,darkblue,buttonB,transparent.png,None,None,,0,0,0,0,0,0,0,0,,,,,0,5,5,19,0,0,-0.4685714285714286,-0.19428571428571428,1,0,0,buttonA,,,,,2024_Mar_02_1253,Stroop_Squared_all_3,2021.2.3,59.82049067488149,
None,RED,darkblue,RED,darkblue,BLUE,darkred,buttonB,transparent.png,None,None,,0,0,0,0,0,0,0,0,,,,,0,6,6,166,0,-1,-0.4685714285714286,-0.19428571428571428,1,0,0,buttonA,,,,,2024_Mar_02_1253,Stroop_Squared_all_3,2021.2.3,59.82049067488149,
None,RED,darkblue,BLUE,darkblue,RED,darkred,buttonA,transparent.png,None,None,,0,0,0,0,0,0,0,0,,,,,0,7,7,219,1,0,-0.4685714285714286,-0.19428571428571428,1,0,0,buttonA,,,,,2024_Mar_02_1253,Stroop_Squared_all_3,2021.2.3,59.82049067488149,
None,BLUE,darkred,BLUE,darkblue,RED,darkred,buttonB,transparent.png,None,None,,0,0,0,0,0,0,0,0,,,,,0,8,8,26,0,-1,-0.4685714285714286,-0.19428571428571428,1,0,0,buttonA,,,,,2024_Mar_02_1253,Stroop_Squared_all_3,2021.2.3,59.82049067488149,
None,RED,darkred,BLUE,darkblue,RED,darkred,buttonB,transparent.png,None,None,,0,0,0,0,0,0,0,0,,,,,0,9,9,338,0,-2,-0.4685714285714286,-0.19428571428571428,1,0,0,buttonA,,,,,2024_Mar_02_1253,Stroop_Squared_all_3,2021.2.3,59.82049067488149,
None,RED,darkred,BLUE,darkred,RED,darkblue,buttonB,transparent.png,None,None,,0,0,0,0,0,0,0,0,,,,,0,10,10,397,0,-3,-0.4685714285714286,-0.19428571428571428,1,0,0,buttonA,,,,,2024_Mar_02_1253,Stroop_Squared_all_3,2021.2.3,59.82049067488149,
None,RED,darkblue,BLUE,darkblue,RED,darkred,buttonA,transparent.png,None,None,,0,0,0,0,0,0,0,0,,,,,0,11,11,377,0,-4,0.4657142857142857,-0.17523809523809525,1,0,0,buttonB,,,,,2024_Mar_02_1253,Stroop_Squared_all_3,2021.2.3,59.82049067488149,
None,BLUE,darkred,RED,darkblue,BLUE,darkred,buttonA,transparent.png,None,None,,0,0,0,0,0,0,0,0,,,,,0,12,12,310,0,-5,0.4657142857142857,-0.17523809523809525,1,0,0,buttonB,,,,,2024_Mar_02_1253,Stroop_Squared_all_3,2021.2.3,59.82049067488149,
None,RED,darkred,RED,darkred,BLUE,darkblue,buttonA,transparent.png,None,None,,0,0,0,0,0,0,0,0,,,,,0,13,13,280,0,-6,0.4657142857142857,-0.17523809523809525,1,0,0,buttonB,,,,,2024_Mar_02_1253,Stroop_Squared_all_3,2021.2.3,59.82049067488149,
None,BLUE,darkred,BLUE,darkblue,RED,darkred,buttonB,transparent.png,None,None,,0,0,0,0,0,0,0,0,,,,,0,14,14,223,1,-5,0.4657142857142857,-0.17523809523809525,1,0,0,buttonB,,,,,2024_Mar_02_1253,Stroop_Squared_all_3,2021.2.3,59.82049067488149,
None,RED,darkred,BLUE,darkred,RED,darkblue,buttonB,transparent.png,None,None,,0,0,0,0,0,0,0,0,,,,,0,15,15,339,1,-4,0.4657142857142857,-0.17523809523809525,1,0,0,buttonB,,,,,2024_Mar_02_1253,Stroop_Squared_all_3,2021.2.3,59.82049067488149,
None,BLUE,darkred,RED,darkred,BLUE,darkblue,buttonA,transparent.png,None,None,,0,0,0,0,0,0,0,0,,,,,0,16,16,370,0,-5,0.4657142857142857,-0.17523809523809525,1,0,0,buttonB,,,,,2024_Mar_02_1253,Stroop_Squared_all_3,2021.2.3,59.82049067488149,
None,BLUE,darkred,RED,darkred,BLUE,darkblue,buttonA,transparent.png,None,None,,0,0,0,0,0,0,0,0,,,,,0,17,17,391,0,-6,0.4657142857142857,-0.17523809523809525,1,0,0,buttonB,,,,,2024_Mar_02_1253,Stroop_Squared_all_3,2021.2.3,59.82049067488149,
None,RED,darkred,RED,darkred,BLUE,darkblue,buttonA,transparent.png,None,None,,0,0,0,0,0,0,0,0,,,,,0,18,18,112,0,-7,0.4657142857142857,-0.17523809523809525,1,0,0,buttonB,,,,,2024_Mar_02_1253,Stroop_Squared_all_3,2021.2.3,59.82049067488149,
None,BLUE,darkred,BLUE,darkblue,RED,darkred,buttonB,transparent.png,None,None,,0,0,0,0,0,0,0,0,,,,,0,19,19,251,1,-6,0.4657142857142857,-0.17523809523809525,1,0,0,buttonB,,,,,2024_Mar_02_1253,Stroop_Squared_all_3,2021.2.3,59.82049067488149,
None,RED,darkblue,BLUE,darkred,RED,darkblue,buttonA,transparent.png,None,None,,0,0,0,0,0,0,0,0,,,,,0,20,20,231,0,-7,0.4657142857142857,-0.17523809523809525,1,0,0,buttonB,,,,,2024_Mar_02_1253,Stroop_Squared_all_3,2021.2.3,59.82049067488149,
None,RED,darkblue,RED,darkblue,BLUE,darkred,buttonB,transparent.png,None,None,,0,0,0,0,0,0,0,0,,,,,0,21,21,82,1,-6,0.4657142857142857,-0.17523809523809525,1,0,0,buttonB,,,,,2024_Mar_02_1253,Stroop_Squared_all_3,2021.2.3,59.82049067488149,
None,RED,darkred,BLUE,darkred,RED,darkblue,buttonB,transparent.png,None,None,,0,0,0,0,0,0,0,0,,,,,0,22,22,62,1,-5,0.4657142857142857,-0.17523809523809525,1,0,0,buttonB,,,,,2024_Mar_02_1253,Stroop_Squared_all_3,2021.2.3,59.82049067488149,
None,RED,darkblue,RED,darkblue,BLUE,darkred,buttonB,transparent.png,None,None,,0,0,0,0,0,0,0,0,,,,,0,23,23,371,1,-4,0.4657142857142857,-0.17523809523809525,1,0,0,buttonB,,,,,2024_Mar_02_1253,Stroop_Squared_all_3,2021.2.3,59.82049067488149,
None,RED,darkblue,RED,darkred,BLUE,darkblue,buttonB,transparent.png,None,None,,0,0,0,0,0,0,0,0,,,,,0,24,24,73,1,-3,0.4657142857142857,-0.17523809523809525,1,0,0,buttonB,,,,,2024_Mar_02_1253,Stroop_Squared_all_3,2021.2.3,59.82049067488149,
None,BLUE,darkred,RED,darkred,BLUE,darkblue,buttonA,transparent.png,None,None,,0,0,0,0,0,0,0,0,,,,,0,25,25,319,0,-4,0.4657142857142857,-0.17523809523809525,1,0,0,buttonB,,,,,2024_Mar_02_1253,Stroop_Squared_all_3,2021.2.3,59.82049067488149,
None,BLUE,darkblue,RED,darkblue,BLUE,darkred,buttonB,transparent.png,None,None,,0,0,0,0,0,0,0,0,,,,,0,26,26,32,1,-3,0.4657142857142857,-0.17523809523809525,1,0,0,buttonB,,,,,2024_Mar_02_1253,Stroop_Squared_all_3,2021.2.3,59.82049067488149,
None,BLUE,darkblue,RED,darkred,BLUE,darkblue,buttonB,transparent.png,None,None,,0,0,0,0,0,0,0,0,,,,,0,27,27,9,1,-2,0.4657142857142857,-0.17523809523809525,1,0,0,buttonB,,,,,2024_Mar_02_1253,Stroop_Squared_all_3,2021.2.3,59.82049067488149,
None,BLUE,darkred,RED,darkblue,BLUE,darkred,buttonA,transparent.png,None,None,,0,0,0,0,0,0,0,0,,,,,0,28,28,369,0,-3,0.4657142857142857,-0.17523809523809525,1,0,0,buttonB,,,,,2024_Mar_02_1253,Stroop_Squared_all_3,2021.2.3,59.82049067488149,
None,BLUE,darkred,BLUE,darkblue,RED,darkred,buttonB,transparent.png,None,None,,0,0,0,0,0,0,0,0,,,,,0,29,29,368,1,-2,0.4657142857142857,-0.17523809523809525,1,0,0,buttonB,,,,,2024_Mar_02_1253,Stroop_Squared_all_3,2021.2.3,59.82049067488149,
None,BLUE,darkblue,RED,darkred,BLUE,darkblue,buttonB,transparent.png,None,None,,0,0,0,0,0,0,0,0,,,,,0,30,30,5,0,-3,-0.4866666666666667,-0.15619047619047619,1,0,0,buttonA,,,,,2024_Mar_02_1253,Stroop_Squared_all_3,2021.2.3,59.82049067488149,
None,RED,darkblue,BLUE,darkblue,RED,darkred,buttonA,transparent.png,None,None,,0,0,0,0,0,0,0,0,,,,,0,31,31,44,0,-4,0.4266666666666667,-0.16476190476190475,1,0,0,buttonB,,,,,2024_Mar_02_1253,Stroop_Squared_all_3,2021.2.3,59.82049067488149,
None,RED,darkred,RED,darkred,BLUE,darkblue,buttonA,transparent.png,None,None,,0,0,0,0,0,0,0,0,,,,,0,32,32,130,1,-3,-0.5942857142857143,-0.18285714285714286,1,0,0,buttonA,,,,,2024_Mar_02_1253,Stroop_Squared_all_3,2021.2.3,59.82049067488149,
None,RED,darkblue,BLUE,darkred,RED,darkblue,buttonA,transparent.png,None,None,,0,0,0,0,0,0,0,0,,,,,0,33,33,238,0,-4,0.37333333333333335,-0.15333333333333332,1,0,0,buttonB,,,,,2024_Mar_02_1253,Stroop_Squared_all_3,2021.2.3,59.82049067488149,
None,BLUE,darkred,BLUE,darkred,RED,darkblue,buttonB,transparent.png,None,None,,0,0,0,0,0,0,0,0,,,,,0,34,34,15,0,-5,-0.5419047619047619,-0.1619047619047619,1,0,0,buttonA,,,,,2024_Mar_02_1253,Stroop_Squared_all_3,2021.2.3,59.82049067488149,
None,BLUE,darkred,RED,darkred,BLUE,darkblue,buttonA,transparent.png,None,None,,0,0,0,0,0,0,0,0,,,,,0,35,35,356,0,-6,0.4257142857142857,-0.16476190476190475,1,0,0,buttonB,,,,,2024_Mar_02_1253,Stroop_Squared_all_3,2021.2.3,59.82049067488149,
None,BLUE,darkblue,BLUE,darkblue,RED,darkred,buttonA,transparent.png,None,None,,0,0,0,0,0,0,0,0,,,,,0,36,36,21,1,-5,-0.62,-0.14952380952380953,1,0,0,buttonA,,,,,2024_Mar_02_1253,Stroop_Squared_all_3,2021.2.3,59.82049067488149,
None,RED,darkred,RED,darkred,BLUE,darkblue,buttonA,transparent.png,None,None,,0,0,0,0,0,0,0,0,,,,,0,37,37,384,0,-6,0.5019047619047619,-0.1580952380952381,1,0,0,buttonB,,,,,2024_Mar_02_1253,Stroop_Squared_all_3,2021.2.3,59.82049067488149,
None,RED,darkred,RED,darkred,BLUE,darkblue,buttonA,transparent.png,None,None,,0,0,0,0,0,0,0,0,,,,,0,38,38,353,1,-5,-0.4666666666666667,-0.16095238095238096,1,0,0,buttonA,,,,,2024_Mar_02_1253,Stroop_Squared_all_3,2021.2.3,59.82049067488149,
None,RED,darkblue,RED,darkred,BLUE,darkblue,buttonB,transparent.png,None,None,,0,0,0,0,0,0,0,0,,,,,0,39,39,177,1,-4,0.4,-0.16380952380952382,1,0,0,buttonB,,,,,2024_Mar_02_1253,Stroop_Squared_all_3,2021.2.3,59.82049067488149,
None,BLUE,darkblue,BLUE,darkblue,RED,darkred,buttonA,transparent.png,None,None,,0,0,0,0,0,0,0,0,,,,,0,40,40,186,1,-3,-0.4114285714285714,-0.17238095238095238,1,0,0,buttonA,,,,,2024_Mar_02_1253,Stroop_Squared_all_3,2021.2.3,59.82049067488149,
None,RED,darkblue,BLUE,darkblue,RED,darkred,buttonA,transparent.png,None,None,,0,0,0,0,0,0,0,0,,,,,0,41,41,364,0,-4,0.6761904761904762,-0.18761904761904763,1,0,0,buttonB,,,,,2024_Mar_02_1253,Stroop_Squared_all_3,2021.2.3,59.82049067488149,
None,RED,darkblue,RED,darkred,BLUE,darkblue,buttonB,transparent.png,None,None,,0,0,0,0,0,0,0,0,,,,,0,42,42,89,0,-5,-0.34476190476190477,-0.1761904761904762,1,0,0,buttonA,,,,,2024_Mar_02_1253,Stroop_Squared_all_3,2021.2.3,59.82049067488149,
None,RED,darkred,RED,darkred,BLUE,darkblue,buttonA,transparent.png,None,None,,0,0,0,0,0,0,0,0,,,,,0,43,43,181,0,-6,0.520952380952381,-0.1676190476190476,1,0,0,buttonB,,,,,2024_Mar_02_1253,Stroop_Squared_all_3,2021.2.3,59.82049067488149,
None,RED,darkblue,RED,darkred,BLUE,darkblue,buttonB,transparent.png,None,None,,0,0,0,0,0,0,0,0,,,,,0,44,44,233,0,-7,-0.4866666666666667,-0.15333333333333332,1,0,0,buttonA,,,,,2024_Mar_02_1253,Stroop_Squared_all_3,2021.2.3,59.82049067488149,
None,RED,darkblue,BLUE,darkblue,RED,darkred,buttonA,transparent.png,None,None,,0,0,0,0,0,0,0,0,,,,,0,45,45,333,0,-8,0.4780952380952381,-0.1457142857142857,1,0,0,buttonB,,,,,2024_Mar_02_1253,Stroop_Squared_all_3,2021.2.3,59.82049067488149,
None,BLUE,darkblue,RED,darkred,BLUE,darkblue,buttonB,transparent.png,None,None,,0,0,0,0,0,0,0,0,,,,,0,46,46,335,0,-9,-0.5952380952380952,-0.16,1,0,0,buttonA,,,,,2024_Mar_02_1253,Stroop_Squared_all_3,2021.2.3,59.82049067488149,
None,BLUE,darkblue,RED,darkred,BLUE,darkblue,buttonB,transparent.png,None,None,,0,0,0,0,0,0,0,0,,,,,0,47,47,205,1,-8,0.4276190476190476,-0.15904761904761905,1,0,0,buttonB,,,,,2024_Mar_02_1253,Stroop_Squared_all_3,2021.2.3,59.82049067488149,
None,BLUE,darkred,BLUE,darkred,RED,darkblue,buttonB,transparent.png,None,None,,0,0,0,0,0,0,0,0,,,,,0,48,48,96,0,-9,-0.659047619047619,-0.14095238095238094,1,0,0,buttonA,,,,,2024_Mar_02_1253,Stroop_Squared_all_3,2021.2.3,59.82049067488149,
None,BLUE,darkblue,BLUE,darkblue,RED,darkred,buttonA,transparent.png,None,None,,0,0,0,0,0,0,0,0,,,,,0,49,49,57,0,-10,0.5238095238095238,-0.15714285714285714,1,0,0,buttonB,,,,,2024_Mar_02_1253,Stroop_Squared_all_3,2021.2.3,59.82049067488149,
None,BLUE,darkblue,BLUE,darkblue,RED,darkred,buttonA,transparent.png,None,None,,0,0,0,0,0,0,0,0,,,,,0,50,50,286,1,-9,-0.6514285714285715,-0.15047619047619049,1,0,0,buttonA,,,,,2024_Mar_02_1253,Stroop_Squared_all_3,2021.2.3,59.82049067488149,
None,BLUE,darkred,BLUE,darkred,RED,darkblue,buttonB,transparent.png,None,None,,0,0,0,0,0,0,0,0,,,,,0,51,51,399,1,-8,0.34476190476190477,-0.15142857142857144,1,0,0,buttonB,,,,,2024_Mar_02_1253,Stroop_Squared_all_3,2021.2.3,59.82049067488149,
None,RED,darkblue,BLUE,darkred,RED,darkblue,buttonA,transparent.png,None,None,,0,0,0,0,0,0,0,0,,,,,0,52,52,14,1,-7,-0.5752380952380952,-0.15142857142857144,1,0,0,buttonA,,,,,2024_Mar_02_1253,Stroop_Squared_all_3,2021.2.3,59.82049067488149,
None,RED,darkblue,RED,darkred,BLUE,darkblue,buttonB,transparent.png,None,None,,0,0,0,0,0,0,0,0,,,,,0,53,53,117,1,-6,0.5438095238095239,-0.16,1,0,0,buttonB,,,,,2024_Mar_02_1253,Stroop_Squared_all_3,2021.2.3,59.82049067488149,
None,BLUE,darkblue,BLUE,darkred,RED,darkblue,buttonA,transparent.png,None,None,,0,0,0,0,0,0,0,0,,,,,0,54,54,352,1,-5,-0.49238095238095236,-0.16857142857142857,1,0,0,buttonA,,,,,2024_Mar_02_1253,Stroop_Squared_all_3,2021.2.3,59.82049067488149,
None,BLUE,darkred,RED,darkred,BLUE,darkblue,buttonA,transparent.png,None,None,,0,0,0,0,0,0,0,0,,,,,0,55,55,93,0,-6,0.4980952380952381,-0.16285714285714287,1,0,0,buttonB,,,,,2024_Mar_02_1253,Stroop_Squared_all_3,2021.2.3,59.82049067488149,
None,RED,darkred,BLUE,darkblue,RED,darkred,buttonB,transparent.png,None,None,,0,0,0,0,0,0,0,0,,,,,0,56,56,116,0,-7,-0.5085714285714286,-0.16,1,0,0,buttonA,,,,,2024_Mar_02_1253,Stroop_Squared_all_3,2021.2.3,59.82049067488149,
None,BLUE,darkred,BLUE,darkblue,RED,darkred,buttonB,transparent.png,None,None,,0,0,0,0,0,0,0,0,,,,,0,57,57,167,1,-6,0.43714285714285717,-0.16285714285714287,1,0,0,buttonB,,,,,2024_Mar_02_1253,Stroop_Squared_all_3,2021.2.3,59.82049067488149,
None,RED,darkblue,RED,darkred,BLUE,darkblue,buttonB,transparent.png,None,None,,0,0,0,0,0,0,0,0,,,,,0,58,58,40,0,-7,-0.5152380952380953,-0.14761904761904762,1,0,0,buttonA,,,,,2024_Mar_02_1253,Stroop_Squared_all_3,2021.2.3,59.82049067488149,
None,BLUE,darkblue,BLUE,darkblue,RED,darkred,buttonA,transparent.png,None,None,,0,0,0,0,0,0,0,0,,,,,0,59,59,392,0,-8,0.5561904761904762,-0.14761904761904762,1,0,0,buttonB,,,,,2024_Mar_02_1253,Stroop_Squared_all_3,2021.2.3,59.82049067488149,
None,BLUE,darkblue,RED,darkblue,BLUE,darkred,buttonB,transparent.png,None,None,,0,0,0,0,0,0,0,0,,,,,0,60,60,27,1,-7,0.5571428571428572,-0.15904761904761905,1,0,0,buttonB,,,,,2024_Mar_02_1253,Stroop_Squared_all_3,2021.2.3,59.82049067488149,
None,RED,darkblue,BLUE,darkred,RED,darkblue,buttonA,transparent.png,None,None,,0,0,0,0,0,0,0,0,,,,,0,61,61,17,0,-8,0.719047619047619,-0.15523809523809523,1,0,0,buttonB,,,,,2024_Mar_02_1253,Stroop_Squared_all_3,2021.2.3,59.82049067488149,
None,RED,darkblue,RED,darkred,BLUE,darkblue,buttonB,transparent.png,None,None,,0,0,0,0,0,0,0,0,,,,,0,62,62,182,1,-7,0.719047619047619,-0.15428571428571428,1,0,0,buttonB,,,,,2024_Mar_02_1253,Stroop_Squared_all_3,2021.2.3,59.82049067488149,
None,BLUE,darkblue,RED,darkred,BLUE,darkblue,buttonB,transparent.png,None,None,,0,0,0,0,0,0,0,0,,,,,0,63,63,221,1,-6,0.719047619047619,-0.15428571428571428,1,0,0,buttonB,,,,,2024_Mar_02_1253,Stroop_Squared_all_3,2021.2.3,59.82049067488149,
None,RED,darkblue,RED,darkred,BLUE,darkblue,buttonB,transparent.png,None,None,,0,0,0,0,0,0,0,0,,,,,0,64,64,122,1,-5,0.719047619047619,-0.15428571428571428,1,0,0,buttonB,,,,,2024_Mar_02_1253,Stroop_Squared_all_3,2021.2.3,59.82049067488149,
None,RED,darkred,RED,darkblue,BLUE,darkred,buttonA,transparent.png,None,None,,0,0,0,0,0,0,0,0,,,,,0,65,65,275,0,-6,0.719047619047619,-0.15428571428571428,1,0,0,buttonB,,,,,2024_Mar_02_1253,Stroop_Squared_all_3,2021.2.3,59.82049067488149,
None,RED,darkred,RED,darkred,BLUE,darkblue,buttonA,transparent.png,None,None,,0,0,0,0,0,0,0,0,,,,,0,66,66,191,0,-7,0.719047619047619,-0.15428571428571428,1,0,0,buttonB,,,,,2024_Mar_02_1253,Stroop_Squared_all_3,2021.2.3,59.82049067488149,
None,RED,darkred,RED,darkblue,BLUE,darkred,buttonA,transparent.png,None,None,,0,0,0,0,0,0,0,0,,,,,0,67,67,35,0,-8,0.719047619047619,-0.15428571428571428,1,0,0,buttonB,,,,,2024_Mar_02_1253,Stroop_Squared_all_3,2021.2.3,59.82049067488149,
None,BLUE,darkred,BLUE,darkblue,RED,darkred,buttonB,transparent.png,None,None,,0,0,0,0,0,0,0,0,,,,,0,68,68,264,1,-7,0.719047619047619,-0.15428571428571428,1,0,0,buttonB,,,,,2024_Mar_02_1253,Stroop_Squared_all_3,2021.2.3,59.82049067488149,
None,BLUE,darkblue,RED,darkred,BLUE,darkblue,buttonB,transparent.png,None,None,,0,0,0,0,0,0,0,0,,,,,0,69,69,173,1,-6,0.719047619047619,-0.15428571428571428,1,0,0,buttonB,,,,,2024_Mar_02_1253,Stroop_Squared_all_3,2021.2.3,59.82049067488149,
None,BLUE,darkred,RED,darkred,BLUE,darkblue,buttonA,transparent.png,None,None,,0,0,0,0,0,0,0,0,,,,,0,70,70,201,0,-7,0.7057142857142857,-0.1619047619047619,1,0,0,buttonB,,,,,2024_Mar_02_1253,Stroop_Squared_all_3,2021.2.3,59.82049067488149,
None,RED,darkblue,RED,darkred,BLUE,darkblue,buttonB,transparent.png,None,None,,0,0,0,0,0,0,0,0,,,,,0,71,71,343,1,-6,0.7057142857142857,-0.1619047619047619,1,0,0,buttonB,,,,,2024_Mar_02_1253,Stroop_Squared_all_3,2021.2.3,59.82049067488149,
None,BLUE,darkred,RED,darkblue,BLUE,darkred,buttonA,transparent.png,None,None,,0,0,0,0,0,0,0,0,,,,,0,72,72,287,1,-5,-0.3628571428571429,-0.22666666666666666,1,0,0,buttonA,,,,,2024_Mar_02_1253,Stroop_Squared_all_3,2021.2.3,59.82049067488149,
None,RED,darkblue,BLUE,darkred,RED,darkblue,buttonA,transparent.png,None,None,,0,0,0,0,0,0,0,0,,,,,0,73,73,365,1,-4,-0.3638095238095238,-0.22666666666666666,1,0,0,buttonA,,,,,2024_Mar_02_1253,Stroop_Squared_all_3,2021.2.3,59.82049067488149,
None,RED,darkblue,BLUE,darkblue,RED,darkred,buttonA,transparent.png,None,None,,0,0,0,0,0,0,0,0,,,,,0,74,74,232,1,-3,-0.3638095238095238,-0.22666666666666666,1,0,0,buttonA,,,,,2024_Mar_02_1253,Stroop_Squared_all_3,2021.2.3,59.82049067488149,
None,RED,darkblue,RED,darkblue,BLUE,darkred,buttonB,transparent.png,None,None,,0,0,0,0,0,0,0,0,,,,,0,75,75,299,0,-4,-0.3638095238095238,-0.22666666666666666,1,0,0,buttonA,,,,,2024_Mar_02_1253,Stroop_Squared_all_3,2021.2.3,59.82049067488149,
None,BLUE,darkblue,BLUE,darkred,RED,darkblue,buttonA,transparent.png,None,None,,0,0,0,0,0,0,0,0,,,,,0,76,76,277,1,-3,-0.3657142857142857,-0.2257142857142857,1,0,0,buttonA,,,,,2024_Mar_02_1253,Stroop_Squared_all_3,2021.2.3,59.82049067488149,
None,RED,darkred,BLUE,darkred,RED,darkblue,buttonB,transparent.png,None,None,,0,0,0,0,0,0,0,0,,,,,0,77,77,134,0,-4,-0.36666666666666664,-0.22666666666666666,1,0,0,buttonA,,,,,2024_Mar_02_1253,Stroop_Squared_all_3,2021.2.3,59.82049067488149,
None,RED,darkred,RED,darkred,BLUE,darkblue,buttonA,transparent.png,None,None,,0,0,0,0,0,0,0,0,,,,,0,78,78,227,1,-3,-0.36666666666666664,-0.2276190476190476,1,0,0,buttonA,,,,,2024_Mar_02_1253,Stroop_Squared_all_3,2021.2.3,59.82049067488149,
None,BLUE,darkred,BLUE,darkblue,RED,darkred,buttonB,transparent.png,None,None,,0,0,0,0,0,0,0,0,,,,,0,79,79,38,0,-4,-0.3676190476190476,-0.2257142857142857,1,0,0,buttonA,,,,,2024_Mar_02_1253,Stroop_Squared_all_3,2021.2.3,59.82049067488149,
None,RED,darkred,RED,darkred,BLUE,darkblue,buttonA,transparent.png,None,None,,0,0,0,0,0,0,0,0,,,,,0,80,80,350,1,-3,-0.37523809523809526,-0.2257142857142857,1,0,0,buttonA,,,,,2024_Mar_02_1253,Stroop_Squared_all_3,2021.2.3,59.82049067488149,
None,BLUE,darkblue,BLUE,darkblue,RED,darkred,buttonA,transparent.png,None,None,,0,0,0,0,0,0,0,0,,,,,0,81,81,101,1,-2,-0.37523809523809526,-0.22476190476190477,1,0,0,buttonA,,,,,2024_Mar_02_1253,Stroop_Squared_all_3,2021.2.3,59.82049067488149,
None,RED,darkred,RED,darkblue,BLUE,darkred,buttonA,transparent.png,None,None,,0,0,0,0,0,0,0,0,,,,,0,82,82,142,1,-1,-0.37523809523809526,-0.22476190476190477,1,0,0,buttonA,,,,,2024_Mar_02_1253,Stroop_Squared_all_3,2021.2.3,59.82049067488149,
None,BLUE,darkblue,BLUE,darkblue,RED,darkred,buttonA,transparent.png,None,None,,0,0,0,0,0,0,0,0,,,,,0,83,83,151,1,0,-0.37523809523809526,-0.22476190476190477,1,0,0,buttonA,,,,,2024_Mar_02_1253,Stroop_Squared_all_3,2021.2.3,59.82049067488149,
None,BLUE,darkblue,RED,darkred,BLUE,darkblue,buttonB,transparent.png,None,None,,0,0,0,0,0,0,0,0,,,,,0,84,84,337,0,-1,-0.37523809523809526,-0.22380952380952382,1,0,0,buttonA,,,,,2024_Mar_02_1253,Stroop_Squared_all_3,2021.2.3,59.82049067488149,
None,RED,darkred,RED,darkred,BLUE,darkblue,buttonA,transparent.png,None,None,,0,0,0,0,0,0,0,0,,,,,0,85,85,256,1,0,-0.37523809523809526,-0.22380952380952382,1,0,0,buttonA,,,,,2024_Mar_02_1253,Stroop_Squared_all_3,2021.2.3,59.82049067488149,
None,RED,darkred,BLUE,darkred,RED,darkblue,buttonB,transparent.png,None,None,,0,0,0,0,0,0,0,0,,,,,0,86,86,193,0,-1,-0.3742857142857143,-0.22380952380952382,1,0,0,buttonA,,,,,2024_Mar_02_1253,Stroop_Squared_all_3,2021.2.3,59.82049067488149,
None,BLUE,darkred,RED,darkred,BLUE,darkblue,buttonA,transparent.png,None,None,,0,0,0,0,0,0,0,0,,,,,0,87,87,11,1,0,-0.37333333333333335,-0.22380952380952382,1,0,0,buttonA,,,,,2024_Mar_02_1253,Stroop_Squared_all_3,2021.2.3,59.82049067488149,
None,BLUE,darkred,RED,darkred,BLUE,darkblue,buttonA,transparent.png,None,None,,0,0,0,0,0,0,0,0,,,,,0,88,88,103,1,1,-0.37333333333333335,-0.22380952380952382,1,0,0,buttonA,,,,,2024_Mar_02_1253,Stroop_Squared_all_3,2021.2.3,59.82049067488149,
None,BLUE,darkblue,BLUE,darkred,RED,darkblue,buttonA,transparent.png,None,None,,0,0,0,0,0,0,0,0,,,,,0,89,89,207,1,2,-0.37333333333333335,-0.22380952380952382,1,0,0,buttonA,,,,,2024_Mar_02_1253,Stroop_Squared_all_3,2021.2.3,59.82049067488149,
None,BLUE,darkblue,RED,darkblue,BLUE,darkred,buttonB,transparent.png,None,None,,0,0,0,0,0,0,0,0,,,,,0,90,90,361,0,1,-0.37333333333333335,-0.22380952380952382,1,0,0,buttonA,,,,,2024_Mar_02_1253,Stroop_Squared_all_3,2021.2.3,59.82049067488149,
None,BLUE,darkred,BLUE,darkred,RED,darkblue,buttonB,transparent.png,None,None,,0,0,0,0,0,0,0,0,,,,,0,91,91,88,0,0,-0.37333333333333335,-0.22380952380952382,1,0,0,buttonA,,,,,2024_Mar_02_1253,Stroop_Squared_all_3,2021.2.3,59.82049067488149,
None,BLUE,darkred,BLUE,darkblue,RED,darkred,buttonB,transparent.png,None,None,,0,0,0,0,0,0,0,0,,,,,0,92,92,216,0,-1,-0.37333333333333335,-0.2257142857142857,1,0,0,buttonA,,,,,2024_Mar_02_1253,Stroop_Squared_all_3,2021.2.3,59.82049067488149,
None,BLUE,darkblue,RED,darkred,BLUE,darkblue,buttonB,transparent.png,None,None,,0,0,0,0,0,0,0,0,,,,,0,93,93,1,0,-2,-0.37333333333333335,-0.2257142857142857,1,0,0,buttonA,,,,,2024_Mar_02_1253,Stroop_Squared_all_3,2021.2.3,59.82049067488149,
None,BLUE,darkred,RED,darkred,BLUE,darkblue,buttonA,transparent.png,None,None,,0,0,0,0,0,0,0,0,,,,,0,94,94,2,1,-1,-0.37333333333333335,-0.2257142857142857,1,0,0,buttonA,,,,,2024_Mar_02_1253,Stroop_Squared_all_3,2021.2.3,59.82049067488149,
None,BLUE,darkblue,RED,darkblue,BLUE,darkred,buttonB,transparent.png,None,None,,0,0,0,0,0,0,0,0,,,,,0,95,95,324,0,-2,-0.35333333333333333,-0.21523809523809523,0,0,0,999,,,,,2024_Mar_02_1253,Stroop_Squared_all_3,2021.2.3,59.82049067488149,
None,BLUE,darkblue,BLUE,darkred,RED,darkblue,buttonA,transparent.png,None,None,,0,0,0,0,1,0,1,0,,,,,0,0,0,185,0,-1,0.43523809523809526,-0.2342857142857143,1,0,0,buttonB,,,,,2024_Mar_02_1253,Stroop_Squared_all_3,2021.2.3,59.82049067488149,
None,RED,darkred,RED,darkblue,BLUE,darkred,buttonA,transparent.png,None,None,,0,0,0,0,1,0,1,0,,,,,0,1,1,120,1,0,-0.3180952380952381,-0.2057142857142857,1,0,0,buttonA,,,,,2024_Mar_02_1253,Stroop_Squared_all_3,2021.2.3,59.82049067488149,
None,BLUE,darkblue,RED,darkred,BLUE,darkblue,buttonB,transparent.png,None,None,,0,0,0,0,1,0,1,0,,,,,0,2,2,147,1,1,0.4895238095238095,-0.18571428571428572,1,0,0,buttonB,,,,,2024_Mar_02_1253,Stroop_Squared_all_3,2021.2.3,59.82049067488149,
None,RED,darkblue,RED,darkblue,BLUE,darkred,buttonB,transparent.png,None,None,,0,0,0,0,1,0,1,0,,,,,0,3,3,247,0,0,-0.5361904761904762,-0.19333333333333333,1,0,0,buttonA,,,,,2024_Mar_02_1253,Stroop_Squared_all_3,2021.2.3,59.82049067488149,
None,BLUE,darkblue,BLUE,darkred,RED,darkblue,buttonA,transparent.png,None,None,,0,0,0,0,1,0,1,0,,,,,0,4,4,345,1,1,-0.5361904761904762,-0.19333333333333333,1,0,0,buttonA,,,,,2024_Mar_02_1253,Stroop_Squared_all_3,2021.2.3,59.82049067488149,
None,BLUE,darkblue,RED,darkred,BLUE,darkblue,buttonB,transparent.png,None,None,,0,0,0,0,1,0,1,0,,,,,0,5,5,266,0,0,-0.5361904761904762,-0.19333333333333333,1,0,0,buttonA,,,,,2024_Mar_02_1253,Stroop_Squared_all_3,2021.2.3,59.82049067488149,
None,BLUE,darkred,BLUE,darkblue,RED,darkred,buttonB,transparent.png,None,None,,0,0,0,0,1,0,1,0,,,,,0,6,6,66,0,-1,-0.5361904761904762,-0.19333333333333333,1,0,0,buttonA,,,,,2024_Mar_02_1253,Stroop_Squared_all_3,2021.2.3,59.82049067488149,
None,BLUE,darkred,BLUE,darkred,RED,darkblue,buttonB,transparent.png,None,None,,0,0,0,0,1,0,1,0,,,,,0,7,7,87,0,-2,-0.5361904761904762,-0.19333333333333333,1,0,0,buttonA,,,,,2024_Mar_02_1253,Stroop_Squared_all_3,2021.2.3,59.82049067488149,
None,RED,darkblue,RED,darkred,BLUE,darkblue,buttonB,transparent.png,None,None,,0,0,0,0,1,0,1,0,,,,,0,8,8,242,0,-3,-0.5361904761904762,-0.19333333333333333,1,0,0,buttonA,,,,,2024_Mar_02_1253,Stroop_Squared_all_3,2021.2.3,59.82049067488149,
None,BLUE,darkred,BLUE,darkblue,RED,darkred,buttonB,transparent.png,None,None,,0,0,0,0,1,0,1,0,,,,,0,9,9,178,0,-4,-0.5361904761904762,-0.19333333333333333,1,0,0,buttonA,,,,,2024_Mar_02_1253,Stroop_Squared_all_3,2021.2.3,59.82049067488149,
None,RED,darkblue,BLUE,darkred,RED,darkblue,buttonA,transparent.png,None,None,,0,0,0,0,1,0,1,0,,,,,0,10,10,71,1,-3,-0.5361904761904762,-0.19333333333333333,1,0,0,buttonA,,,,,2024_Mar_02_1253,Stroop_Squared_all_3,2021.2.3,59.82049067488149,
None,BLUE,darkred,RED,darkblue,BLUE,darkred,buttonA,transparent.png,None,None,,0,0,0,0,1,0,1,0,,,,,0,11,11,307,1,-2,-0.5361904761904762,-0.19333333333333333,1,0,0,buttonA,,,,,2024_Mar_02_1253,Stroop_Squared_all_3,2021.2.3,59.82049067488149,
None,BLUE,darkred,RED,darkred,BLUE,darkblue,buttonA,transparent.png,None,None,,0,0,0,0,1,0,1,0,,,,,0,12,12,93,1,-1,-0.5361904761904762,-0.19333333333333333,1,0,0,buttonA,,,,,2024_Mar_02_1253,Stroop_Squared_all_3,2021.2.3,59.82049067488149,
None,RED,darkred,RED,darkblue,BLUE,darkred,buttonA,transparent.png,None,None,,0,0,0,0,1,0,1,0,,,,,0,13,13,119,1,0,-0.5352380952380953,-0.19523809523809524,1,0,0,buttonA,,,,,2024_Mar_02_1253,Stroop_Squared_all_3,2021.2.3,59.82049067488149,
None,BLUE,darkred,RED,darkred,BLUE,darkblue,buttonA,transparent.png,None,None,,0,0,0,0,1,0,1,0,,,,,0,14,14,85,0,-1,0.3657142857142857,-0.18857142857142858,1,0,0,buttonB,,,,,2024_Mar_02_1253,Stroop_Squared_all_3,2021.2.3,59.82049067488149,
None,RED,darkred,BLUE,darkred,RED,darkblue,buttonB,transparent.png,None,None,,0,0,0,0,1,0,1,0,,,,,0,15,15,62,1,0,0.6057142857142858,-0.17809523809523808,1,0,0,buttonB,,,,,2024_Mar_02_1253,Stroop_Squared_all_3,2021.2.3,59.82049067488149,
None,BLUE,darkred,RED,darkred,BLUE,darkblue,buttonA,transparent.png,None,None,,0,0,0,0,1,0,1,0,,,,,0,16,16,229,0,-1,0.5780952380952381,-0.17904761904761904,1,0,0,buttonB,,,,,2024_Mar_02_1253,Stroop_Squared_all_3,2021.2.3,59.82049067488149,
None,RED,darkblue,RED,darkred,BLUE,darkblue,buttonB,transparent.png,None,None,,0,0,0,0,1,0,1,0,,,,,0,17,17,389,1,0,0.5780952380952381,-0.17904761904761904,1,0,0,buttonB,,,,,2024_Mar_02_1253,Stroop_Squared_all_3,2021.2.3,59.82049067488149,
None,RED,darkblue,RED,darkred,BLUE,darkblue,buttonB,transparent.png,None,None,,0,0,0,0,1,0,1,0,,,,,0,18,18,25,1,1,0.5780952380952381,-0.17904761904761904,1,0,0,buttonB,,,,,2024_Mar_02_1253,Stroop_Squared_all_3,2021.2.3,59.82049067488149,
None,RED,darkred,BLUE,darkblue,RED,darkred,buttonB,transparent.png,None,None,,0,0,0,0,1,0,1,0,,,,,0,19,19,295,0,0,0.5780952380952381,-0.17809523809523808,0,0,0,999,,,,,2024_Mar_02_1253,Stroop_Squared_all_3,2021.2.3,59.82049067488149,
None,HAPPY,white,ANGRY,white,HAPPY,white,buttonA,20.png,19.png,24.png,angry,1,0,1,0,0,0,0,0,,,,,0,0,0,198,0,-1,0.32476190476190475,-0.28,1,0,0,buttonB,0,,,,2024_Mar_02_1253,Stroop_Squared_all_3,2021.2.3,59.82049067488149,
None,HAPPY,white,ANGRY,white,HAPPY,white,buttonA,20.png,29.png,24.png,angry,1,0,1,0,0,0,0,0,,,,,0,1,1,162,1,0,-0.4895238095238095,-0.27714285714285714,1,0,0,buttonA,,,,,2024_Mar_02_1253,Stroop_Squared_all_3,2021.2.3,59.82049067488149,
None,ANGRY,white,ANGRY,white,HAPPY,white,buttonA,20.png,25.png,26.png,angry,1,0,1,0,0,0,0,0,,,,,0,2,2,376,1,1,-0.4342857142857143,-0.24571428571428572,1,0,0,buttonA,,,,,2024_Mar_02_1253,Stroop_Squared_all_3,2021.2.3,59.82049067488149,
None,HAPPY,white,ANGRY,white,HAPPY,white,buttonB,23.png,30.png,21.png,happy,1,0,1,0,0,0,0,0,,,,,0,3,3,77,0,0,-0.4342857142857143,-0.24571428571428572,1,0,0,buttonA,,,,,2024_Mar_02_1253,Stroop_Squared_all_3,2021.2.3,59.82049067488149,
None,ANGRY,white,ANGRY,white,HAPPY,white,buttonA,18.png,32.png,17.png,angry,1,0,1,0,0,0,0,0,,,,,0,4,4,383,1,1,-0.4342857142857143,-0.24571428571428572,1,0,0,buttonA,,,,,2024_Mar_02_1253,Stroop_Squared_all_3,2021.2.3,59.82049067488149,
None,HAPPY,white,HAPPY,white,ANGRY,white,buttonB,32.png,19.png,20.png,angry,1,0,1,0,0,0,0,0,,,,,0,5,5,111,0,0,-0.4342857142857143,-0.24571428571428572,1,0,0,buttonA,,,,,2024_Mar_02_1253,Stroop_Squared_all_3,2021.2.3,59.82049067488149,
None,HAPPY,white,ANGRY,white,HAPPY,white,buttonB,25.png,19.png,22.png,happy,1,0,1,0,0,0,0,0,,,,,0,6,6,53,0,-1,-0.4342857142857143,-0.24571428571428572,1,0,0,buttonA,,,,,2024_Mar_02_1253,Stroop_Squared_all_3,2021.2.3,59.82049067488149,
None,ANGRY,white,HAPPY,white,ANGRY,white,buttonB,32.png,24.png,21.png,angry,1,0,1,0,0,0,0,0,,,,,0,7,7,316,0,-2,-0.4342857142857143,-0.24571428571428572,1,0,0,buttonA,,,,,2024_Mar_02_1253,Stroop_Squared_all_3,2021.2.3,59.82049067488149,
None,ANGRY,white,ANGRY,white,HAPPY,white,buttonB,29.png,28.png,27.png,happy,1,0,1,0,0,0,0,0,,,,,0,8,8,295,0,-3,-0.4342857142857143,-0.24571428571428572,1,0,0,buttonA,,,,,2024_Mar_02_1253,Stroop_Squared_all_3,2021.2.3,59.82049067488149,
None,ANGRY,white,ANGRY,white,HAPPY,white,buttonB,23.png,21.png,32.png,happy,1,0,1,0,0,0,0,0,,,,,0,9,9,291,0,-4,-0.4342857142857143,-0.24571428571428572,1,0,0,buttonA,,,,,2024_Mar_02_1253,Stroop_Squared_all_3,2021.2.3,59.82049067488149,
None,ANGRY,white,HAPPY,white,ANGRY,white,buttonA,25.png,26.png,23.png,happy,1,0,1,0,0,0,0,0,,,,,0,10,10,223,1,-3,-0.4342857142857143,-0.24571428571428572,1,0,0,buttonA,,,,,2024_Mar_02_1253,Stroop_Squared_all_3,2021.2.3,59.82049067488149,
None,HAPPY,white,HAPPY,white,ANGRY,white,buttonA,31.png,32.png,29.png,happy,1,0,1,0,0,0,0,0,,,,,0,11,11,32,1,-2,-0.4342857142857143,-0.24571428571428572,1,0,0,buttonA,,,,,2024_Mar_02_1253,Stroop_Squared_all_3,2021.2.3,59.82049067488149,
None,ANGRY,white,HAPPY,white,ANGRY,white,buttonB,28.png,25.png,20.png,angry,1,0,1,0,0,0,0,0,,,,,0,12,12,334,0,-3,-0.4342857142857143,-0.24571428571428572,1,0,0,buttonA,,,,,2024_Mar_02_1253,Stroop_Squared_all_3,2021.2.3,59.82049067488149,
None,ANGRY,white,HAPPY,white,ANGRY,white,buttonB,20.png,31.png,32.png,angry,1,0,1,0,0,0,0,0,,,,,0,13,13,333,0,-4,-0.4342857142857143,-0.24571428571428572,1,0,0,buttonA,,,,,2024_Mar_02_1253,Stroop_Squared_all_3,2021.2.3,59.82049067488149,
None,HAPPY,white,HAPPY,white,ANGRY,white,buttonB,20.png,29.png,30.png,angry,1,0,1,0,0,0,0,0,,,,,0,14,14,109,0,-5,-0.4342857142857143,-0.24571428571428572,1,0,0,buttonA,,,,,2024_Mar_02_1253,Stroop_Squared_all_3,2021.2.3,59.82049067488149,
None,ANGRY,white,HAPPY,white,ANGRY,white,buttonA,19.png,29.png,26.png,happy,1,0,1,0,0,0,0,0,,,,,0,15,15,249,1,-4,-0.4342857142857143,-0.24571428571428572,1,0,0,buttonA,,,,,2024_Mar_02_1253,Stroop_Squared_all_3,2021.2.3,59.82049067488149,
None,ANGRY,white,ANGRY,white,HAPPY,white,buttonA,28.png,20.png,25.png,angry,1,0,1,0,0,0,0,0,,,,,0,16,16,381,1,-3,-0.4342857142857143,-0.24571428571428572,1,0,0,buttonA,,,,,2024_Mar_02_1253,Stroop_Squared_all_3,2021.2.3,59.82049067488149,
None,HAPPY,white,HAPPY,white,ANGRY,white,buttonA,25.png,24.png,27.png,happy,1,0,1,0,0,0,0,0,,,,,0,17,17,47,1,-2,-0.4342857142857143,-0.24571428571428572,1,0,0,buttonA,,,,,2024_Mar_02_1253,Stroop_Squared_all_3,2021.2.3,59.82049067488149,
None,HAPPY,white,ANGRY,white,HAPPY,white,buttonB,31.png,17.png,20.png,happy,1,0,1,0,0,0,0,0,,,,,0,18,18,69,0,-3,-0.4342857142857143,-0.24571428571428572,1,0,0,buttonA,,,,,2024_Mar_02_1253,Stroop_Squared_all_3,2021.2.3,59.82049067488149,
None,ANGRY,white,ANGRY,white,HAPPY,white,buttonB,21.png,20.png,25.png,happy,1,0,1,0,0,0,0,0,,,,,0,19,19,250,0,-4,-0.4342857142857143,-0.24571428571428572,1,0,0,buttonA,,,,,2024_Mar_02_1253,Stroop_Squared_all_3,2021.2.3,59.82049067488149,
None,ANGRY,white,ANGRY,white,HAPPY,white,buttonA,26.png,27.png,32.png,angry,1,0,1,0,0,0,0,0,,,,,0,20,20,371,1,-3,-0.4342857142857143,-0.24571428571428572,1,0,0,buttonA,,,,,2024_Mar_02_1253,Stroop_Squared_all_3,2021.2.3,59.82049067488149,
None,HAPPY,white,ANGRY,white,HAPPY,white,buttonA,22.png,18.png,17.png,angry,1,0,1,0,0,0,0,0,,,,,0,21,21,160,1,-2,-0.4342857142857143,-0.24571428571428572,1,0,0,buttonA,,,,,2024_Mar_02_1253,Stroop_Squared_all_3,2021.2.3,59.82049067488149,
None,HAPPY,white,HAPPY,white,ANGRY,white,buttonB,20.png,32.png,31.png,angry,1,0,1,0,0,0,0,0,,,,,0,22,22,135,0,-3,-0.4238095238095238,-0.24571428571428572,0,0,0,999,,,,,2024_Mar_02_1253,Stroop_Squared_all_3,2021.2.3,59.82049067488149,
None,HAPPY,white,HAPPY,white,ANGRY,white,buttonA,29.png,30.png,21.png,happy,1,0,1,0,1,0,1,0,,,,,0,0,0,7,0,-1,0.4542857142857143,-0.16857142857142857,1,0,0,buttonB,,,,,2024_Mar_02_1253,Stroop_Squared_all_3,2021.2.3,59.82049067488149,
None,HAPPY,white,ANGRY,white,HAPPY,white,buttonA,24.png,17.png,18.png,angry,1,0,1,0,1,0,1,0,,,,,0,1,1,182,1,0,-0.44761904761904764,-0.10571428571428572,1,0,0,buttonA,,,,,2024_Mar_02_1253,Stroop_Squared_all_3,2021.2.3,59.82049067488149,
None,ANGRY,white,HAPPY,white,ANGRY,white,buttonB,22.png,21.png,30.png,angry,1,0,1,0,1,0,1,0,,,,,0,2,2,343,0,-1,-0.44761904761904764,-0.10571428571428572,1,0,0,buttonA,,,,,2024_Mar_02_1253,Stroop_Squared_all_3,2021.2.3,59.82049067488149,
None,ANGRY,white,HAPPY,white,ANGRY,white,buttonA,27.png,23.png,22.png,happy,1,0,1,0,1,0,1,0,,,,,0,3,3,226,1,0,-0.44761904761904764,-0.10571428571428572,1,0,0,buttonA,,,,,2024_Mar_02_1253,Stroop_Squared_all_3,2021.2.3,59.82049067488149,
None,HAPPY,white,HAPPY,white,ANGRY,white,buttonA,25.png,23.png,26.png,happy,1,0,1,0,1,0,1,0,,,,,0,4,4,20,1,1,-0.44761904761904764,-0.10571428571428572,1,0,0,buttonA,,,,,2024_Mar_02_1253,Stroop_Squared_all_3,2021.2.3,59.82049067488149,
None,HAPPY,white,HAPPY,white,ANGRY,white,buttonB,20.png,32.png,31.png,angry,1,0,1,0,1,0,1,0,,,,,0,5,5,135,0,0,-0.44761904761904764,-0.10571428571428572,1,0,0,buttonA,,,,,2024_Mar_02_1253,Stroop_Squared_all_3,2021.2.3,59.82049067488149,
None,HAPPY,white,HAPPY,white,ANGRY,white,buttonB,26.png,29.png,24.png,angry,1,0,1,0,1,0,1,0,,,,,0,6,6,147,0,-1,-0.44761904761904764,-0.10571428571428572,1,0,0,buttonA,,,,,2024_Mar_02_1253,Stroop_Squared_all_3,2021.2.3,59.82049067488149,
None,ANGRY,white,HAPPY,white,ANGRY,white,buttonB,24.png,21.png,28.png,angry,1,0,1,0,1,0,1,0,,,,,0,7,7,302,0,-2,-0.44761904761904764,-0.10571428571428572,1,0,0,buttonA,,,,,2024_Mar_02_1253,Stroop_Squared_all_3,2021.2.3,59.82049067488149,
None,HAPPY,white,HAPPY,white,ANGRY,white,buttonB,28.png,21.png,18.png,angry,1,0,1,0,1,0,1,0,,,,,0,8,8,145,0,-3,-0.44761904761904764,-0.10571428571428572,1,0,0,buttonA,,,,,2024_Mar_02_1253,Stroop_Squared_all_3,2021.2.3,59.82049067488149,
None,ANGRY,white,ANGRY,white,HAPPY,white,buttonA,28.png,20.png,25.png,angry,1,0,1,0,1,0,1,0,,,,,0,9,9,381,0,-4,0.35619047619047617,-0.14952380952380953,1,0,0,buttonB,,,,,2024_Mar_02_1253,Stroop_Squared_all_3,2021.2.3,59.82049067488149,
None,ANGRY,white,ANGRY,white,HAPPY,white,buttonA,30.png,32.png,27.png,angry,1,0,1,0,1,0,1,0,,,,,0,10,10,366,0,-5,0.35619047619047617,-0.14952380952380953,1,0,0,buttonB,,,,,2024_Mar_02_1253,Stroop_Squared_all_3,2021.2.3,59.82049067488149,
None,ANGRY,white,HAPPY,white,ANGRY,white,buttonA,27.png,31.png,30.png,happy,1,0,1,0,1,0,1,0,,,,,0,11,11,239,0,-6,0.35619047619047617,-0.14952380952380953,1,0,0,buttonB,,,,,2024_Mar_02_1253,Stroop_Squared_all_3,2021.2.3,59.82049067488149,
None,ANGRY,white,ANGRY,white,HAPPY,white,buttonA,26.png,18.png,19.png,angry,1,0,1,0,1,0,1,0,,,,,0,12,12,377,1,-5,-0.4257142857142857,-0.15523809523809523,1,0,0,buttonA,,,,,2024_Mar_02_1253,Stroop_Squared_all_3,2021.2.3,59.82049067488149,
None,HAPPY,white,ANGRY,white,HAPPY,white,buttonA,26.png,27.png,28.png,angry,1,0,1,0,1,0,1,0,,,,,0,13,13,171,0,-6,0.3457142857142857,-0.17523809523809525,1,0,0,buttonB,,,,,2024_Mar_02_1253,Stroop_Squared_all_3,2021.2.3,59.82049067488149,
None,HAPPY,white,ANGRY,white,HAPPY,white,buttonB,21.png,32.png,31.png,happy,1,0,1,0,1,0,1,0,,,,,0,14,14,88,1,-5,0.3457142857142857,-0.1761904761904762,1,0,0,buttonB,,,,,2024_Mar_02_1253,Stroop_Squared_all_3,2021.2.3,59.82049067488149,
None,HAPPY,white,HAPPY,white,ANGRY,white,buttonB,32.png,19.png,30.png,angry,1,0,1,0,1,0,1,0,,,,,0,15,15,129,1,-4,0.3457142857142857,-0.1761904761904762,1,0,0,buttonB,,,,,2024_Mar_02_1253,Stroop_Squared_all_3,2021.2.3,59.82049067488149,
None,HAPPY,white,HAPPY,white,ANGRY,white,buttonB,20.png,31.png,30.png,angry,1,0,1,0,1,0,1,0,,,,,0,16,16,106,1,-3,0.3457142857142857,-0.1761904761904762,1,0,0,buttonB,,,,,2024_Mar_02_1253,Stroop_Squared_all_3,2021.2.3,59.82049067488149,
None,ANGRY,white,HAPPY,white,ANGRY,white,buttonB,18.png,31.png,30.png,angry,1,0,1,0,1,0,1,0,,,,,0,17,17,347,1,-2,0.3457142857142857,-0.1761904761904762,1,0,0,buttonB,,,,,2024_Mar_02_1253,Stroop_Squared_all_3,2021.2.3,59.82049067488149,
None,ANGRY,white,ANGRY,white,HAPPY,white,buttonB,21.png,25.png,28.png,happy,1,0,1,0,1,0,1,0,,,,,0,18,18,267,1,-1,0.3457142857142857,-0.1761904761904762,1,0,0,buttonB,,,,,2024_Mar_02_1253,Stroop_Squared_all_3,2021.2.3,59.82049067488149,
None,ANGRY,white,ANGRY,white,HAPPY,white,buttonA,22.png,26.png,23.png,angry,1,0,1,0,1,0,1,0,,,,,0,19,19,398,0,-2,0.3457142857142857,-0.1761904761904762,1,0,0,buttonB,,,,,2024_Mar_02_1253,Stroop_Squared_all_3,2021.2.3,59.82049067488149,
None,HAPPY,white,ANGRY,white,HAPPY,white,buttonA,28.png,24.png,27.png,angry,1,0,1,0,1,0,1,0,,,,,0,20,20,190,0,-3,0.3457142857142857,-0.1761904761904762,1,0,0,buttonB,,,,,2024_Mar_02_1253,Stroop_Squared_all_3,2021.2.3,59.82049067488149,
None,HAPPY,white,HAPPY,white,ANGRY,white,buttonB,28.png,21.png,32.png,angry,1,0,1,0,1,0,1,0,,,,,0,21,21,132,1,-2,0.3457142857142857,-0.1761904761904762,1,0,0,buttonB,,,,,2024_Mar_02_1253,Stroop_Squared_all_3,2021.2.3,59.82049067488149,
None,ANGRY,white,ANGRY,white,HAPPY,white,buttonB,19.png,23.png,28.png,happy,1,0,1,0,1,0,1,0,,,,,0,22,22,280,1,-1,0.3457142857142857,-0.1761904761904762,1,0,0,buttonB,,,,,2024_Mar_02_1253,Stroop_Squared_all_3,2021.2.3,59.82049067488149,
None,ANGRY,white,ANGRY,white,HAPPY,white,buttonB,25.png,24.png,17.png,happy,1,0,1,0,1,0,1,0,,,,,0,23,23,266,1,0,0.3457142857142857,-0.1761904761904762,1,0,0,buttonB,,,,,2024_Mar_02_1253,Stroop_Squared_all_3,2021.2.3,59.82049067488149,
None,ANGRY,white,HAPPY,white,ANGRY,white,buttonB,18.png,29.png,20.png,angry,1,0,1,0,1,0,1,0,,,,,0,24,24,338,1,1,0.3457142857142857,-0.1761904761904762,1,0,0,buttonB,,,,,2024_Mar_02_1253,Stroop_Squared_all_3,2021.2.3,59.82049067488149,
None,ANGRY,white,ANGRY,white,HAPPY,white,buttonB,17.png,21.png,30.png,happy,1,0,1,0,1,0,1,0,,,,,0,25,25,275,1,2,0.3457142857142857,-0.1761904761904762,1,0,0,buttonB,,,,,2024_Mar_02_1253,Stroop_Squared_all_3,2021.2.3,59.82049067488149,
None,ANGRY,white,HAPPY,white,ANGRY,white,buttonB,24.png,29.png,22.png,angry,1,0,1,0,1,0,1,0,,,,,0,26,26,335,1,3,0.3457142857142857,-0.1761904761904762,1,0,0,buttonB,,,,,2024_Mar_02_1253,Stroop_Squared_all_3,2021.2.3,59.82049067488149,
None,HAPPY,white,ANGRY,white,HAPPY,white,buttonA,24.png,26.png,31.png,angry,1,0,1,0,1,0,1,0,,,,,0,27,27,192,0,2,0.3457142857142857,-0.1761904761904762,1,0,0,buttonB,,,,,2024_Mar_02_1253,Stroop_Squared_all_3,2021.2.3,59.82049067488149,
None,HAPPY,white,HAPPY,white,ANGRY,white,buttonA,23.png,20.png,21.png,happy,1,0,1,0,1,0,1,0,,,,,0,28,28,10,0,1,0.3457142857142857,-0.1761904761904762,1,0,0,buttonB,,,,,2024_Mar_02_1253,Stroop_Squared_all_3,2021.2.3,59.82049067488149,
None,ANGRY,white,ANGRY,white,HAPPY,white,buttonB,17.png,18.png,19.png,happy,1,0,1,0,1,0,1,0,,,,,0,29,29,263,1,2,0.3457142857142857,-0.1761904761904762,1,0,0,buttonB,,,,,2024_Mar_02_1253,Stroop_Squared_all_3,2021.2.3,59.82049067488149,
None,HAPPY,white,HAPPY,white,ANGRY,white,buttonA,31.png,32.png,29.png,happy,1,0,1,0,1,0,1,0,,,,,0,30,30,32,0,1,0.3457142857142857,-0.1761904761904762,1,0,0,buttonB,,,,,2024_Mar_02_1253,Stroop_Squared_all_3,2021.2.3,59.82049067488149,
None,ANGRY,white,HAPPY,white,ANGRY,white,buttonA,29.png,24.png,21.png,happy,1,0,1,0,1,0,1,0,,,,,0,31,31,244,0,0,0.3457142857142857,-0.1761904761904762,1,0,0,buttonB,,,,,2024_Mar_02_1253,Stroop_Squared_all_3,2021.2.3,59.82049067488149,
None,ANGRY,white,HAPPY,white,ANGRY,white,buttonB,26.png,29.png,32.png,angry,1,0,1,0,1,0,1,0,,,,,0,32,32,327,1,1,0.3457142857142857,-0.1761904761904762,1,0,0,buttonB,,,,,2024_Mar_02_1253,Stroop_Squared_all_3,2021.2.3,59.82049067488149,
None,HAPPY,white,ANGRY,white,HAPPY,white,buttonA,30.png,24.png,27.png,angry,1,0,1,0,1,0,1,0,,,,,0,33,33,166,0,0,0.3457142857142857,-0.1761904761904762,1,0,0,buttonB,,,,,2024_Mar_02_1253,Stroop_Squared_all_3,2021.2.3,59.82049067488149,
None,HAPPY,white,HAPPY,white,ANGRY,white,buttonB,24.png,21.png,18.png,angry,1,0,1,0,1,0,1,0,,,,,0,34,34,137,1,1,0.3457142857142857,-0.1761904761904762,1,0,0,buttonB,,,,,2024_Mar_02_1253,Stroop_Squared_all_3,2021.2.3,59.82049067488149,
None,ANGRY,white,HAPPY,white,ANGRY,white,buttonB,22.png,31.png,28.png,angry,1,0,1,0,1,0,1,0,,,,,0,35,35,345,1,2,0.3457142857142857,-0.1761904761904762,1,0,0,buttonB,,,,,2024_Mar_02_1253,Stroop_Squared_all_3,2021.2.3,59.82049067488149,
None,ANGRY,white,HAPPY,white,ANGRY,white,buttonB,32.png,24.png,21.png,angry,1,0,1,0,1,0,1,0,,,,,0,36,36,316,1,3,0.3457142857142857,-0.1761904761904762,1,0,0,buttonB,,,,,2024_Mar_02_1253,Stroop_Squared_all_3,2021.2.3,59.82049067488149,
None,HAPPY,white,HAPPY,white,ANGRY,white,buttonA,21.png,26.png,23.png,happy,1,0,1,0,1,0,1,0,,,,,0,37,37,14,0,2,0.3457142857142857,-0.1761904761904762,1,0,0,buttonB,,,,,2024_Mar_02_1253,Stroop_Squared_all_3,2021.2.3,59.82049067488149,
None,HAPPY,white,HAPPY,white,ANGRY,white,buttonA,17.png,21.png,20.png,happy,1,0,1,0,1,0,1,0,,,,,0,38,38,4,1,3,-0.3647619047619048,-0.1676190476190476,1,0,0,buttonA,,,,,2024_Mar_02_1253,Stroop_Squared_all_3,2021.2.3,59.82049067488149,
None,ANGRY,white,ANGRY,white,HAPPY,white,buttonB,17.png,19.png,30.png,happy,1,0,1,0,1,0,1,0,,,,,0,39,39,293,1,4,0.35619047619047617,-0.18285714285714286,1,0,0,buttonB,,,,,2024_Mar_02_1253,Stroop_Squared_all_3,2021.2.3,59.82049067488149,
None,HAPPY,white,HAPPY,white,ANGRY,white,buttonB,28.png,20.png,29.png,angry,1,0,1,0,1,0,1,0,,,,,0,40,40,149,0,3,-0.34476190476190477,-0.14095238095238094,1,0,0,buttonA,,,,,2024_Mar_02_1253,Stroop_Squared_all_3,2021.2.3,59.82049067488149,
None,ANGRY,white,ANGRY,white,HAPPY,white,buttonA,26.png,27.png,32.png,angry,1,0,1,0,1,0,1,0,,,,,0,41,41,351,0,2,0.41904761904761906,-0.16952380952380952,1,0,0,buttonB,,,,,2024_Mar_02_1253,Stroop_Squared_all_3,2021.2.3,59.82049067488149,
None,ANGRY,white,HAPPY,white,ANGRY,white,buttonA,25.png,32.png,21.png,happy,1,0,1,0,1,0,1,0,,,,,0,42,42,218,0,1,0.41904761904761906,-0.16952380952380952,1,0,0,buttonB,,,,,2024_Mar_02_1253,Stroop_Squared_all_3,2021.2.3,59.82049067488149,
None,ANGRY,white,ANGRY,white,HAPPY,white,buttonA,20.png,18.png,31.png,angry,1,0,1,0,1,0,1,0,,,,,0,43,43,362,0,0,0.41904761904761906,-0.16952380952380952,1,0,0,buttonB,,,,,2024_Mar_02_1253,Stroop_Squared_all_3,2021.2.3,59.82049067488149,
None,HAPPY,white,HAPPY,white,ANGRY,white,buttonB,26.png,31.png,24.png,angry,1,0,1,0,1,0,1,0,,,,,0,44,44,120,1,1,0.41904761904761906,-0.16952380952380952,1,0,0,buttonB,,,,,2024_Mar_02_1253,Stroop_Squared_all_3,2021.2.3,59.82049067488149,
None,ANGRY,white,ANGRY,white,HAPPY,white,buttonA,20.png,18.png,17.png,angry,1,0,1,0,1,0,1,0,,,,,0,45,45,359,0,0,0.41904761904761906,-0.16952380952380952,1,0,0,buttonB,,,,,2024_Mar_02_1253,Stroop_Squared_all_3,2021.2.3,59.82049067488149,
None,ANGRY,white,ANGRY,white,HAPPY,white,buttonB,23.png,19.png,22.png,happy,1,0,1,0,1,0,1,0,,,,,0,46,46,269,1,1,0.41904761904761906,-0.16952380952380952,1,0,0,buttonB,,,,,2024_Mar_02_1253,Stroop_Squared_all_3,2021.2.3,59.82049067488149,
None,ANGRY,white,HAPPY,white,ANGRY,white,buttonA,19.png,29.png,26.png,happy,1,0,1,0,1,0,1,0,,,,,0,47,47,249,0,0,0.41904761904761906,-0.16952380952380952,1,0,0,buttonB,,,,,2024_Mar_02_1253,Stroop_Squared_all_3,2021.2.3,59.82049067488149,
None,HAPPY,white,ANGRY,white,HAPPY,white,buttonB,29.png,18.png,17.png,happy,1,0,1,0,1,0,1,0,,,,,0,48,48,56,1,1,0.41904761904761906,-0.16952380952380952,1,0,0,buttonB,,,,,2024_Mar_02_1253,Stroop_Squared_all_3,2021.2.3,59.82049067488149,
None,ANGRY,white,ANGRY,white,HAPPY,white,buttonA,24.png,25.png,32.png,angry,1,0,1,0,1,0,1,0,,,,,0,49,49,388,0,0,0.41904761904761906,-0.16952380952380952,1,0,0,buttonB,,,,,2024_Mar_02_1253,Stroop_Squared_all_3,2021.2.3,59.82049067488149,
None,HAPPY,white,HAPPY,white,ANGRY,white,buttonB,20.png,23.png,26.png,angry,1,0,1,0,1,0,1,0,,,,,0,50,50,144,1,1,0.41904761904761906,-0.16952380952380952,1,0,0,buttonB,,,,,2024_Mar_02_1253,Stroop_Squared_all_3,2021.2.3,59.82049067488149,
None,HAPPY,white,HAPPY,white,ANGRY,white,buttonA,19.png,23.png,28.png,happy,1,0,1,0,1,0,1,0,,,,,0,51,51,13,0,0,0.41904761904761906,-0.16952380952380952,1,0,0,buttonB,,,,,2024_Mar_02_1253,Stroop_Squared_all_3,2021.2.3,59.82049067488149,
None,ANGRY,white,HAPPY,white,ANGRY,white,buttonA,31.png,21.png,22.png,happy,1,0,1,0,1,0,1,0,,,,,0,52,52,227,0,-1,0.41904761904761906,-0.16952380952380952,1,0,0,buttonB,,,,,2024_Mar_02_1253,Stroop_Squared_all_3,2021.2.3,59.82049067488149,
None,HAPPY,white,ANGRY,white,HAPPY,white,buttonB,19.png,29.png,28.png,happy,1,0,1,0,1,0,1,0,,,,,0,53,53,52,1,0,0.41904761904761906,-0.16952380952380952,1,0,0,buttonB,,,,,2024_Mar_02_1253,Stroop_Squared_all_3,2021.2.3,59.82049067488149,
None,HAPPY,white,ANGRY,white,HAPPY,white,buttonB,19.png,22.png,29.png,happy,1,0,1,0,1,0,1,0,,,,,0,54,54,72,0,-1,-0.319047619047619,-0.14,1,0,0,buttonA,,,,,2024_Mar_02_1253,Stroop_Squared_all_3,2021.2.3,59.82049067488149,
None,HAPPY,white,HAPPY,white,ANGRY,white,buttonA,27.png,30.png,17.png,happy,1,0,1,0,1,0,1,0,,,,,0,55,55,26,1,0,-0.319047619047619,-0.14,1,0,0,buttonA,,,,,2024_Mar_02_1253,Stroop_Squared_all_3,2021.2.3,59.82049067488149,
None,HAPPY,white,ANGRY,white,HAPPY,white,buttonA,22.png,18.png,17.png,angry,1,0,1,0,1,0,1,0,,,,,0,56,56,177,1,1,-0.319047619047619,-0.14,1,0,0,buttonA,,,,,2024_Mar_02_1253,Stroop_Squared_all_3,2021.2.3,59.82049067488149,
None,HAPPY,white,ANGRY,white,HAPPY,white,buttonA,18.png,23.png,28.png,angry,1,0,1,0,1,0,1,0,,,,,0,57,57,170,1,2,-0.319047619047619,-0.14,1,0,0,buttonA,,,,,2024_Mar_02_1253,Stroop_Squared_all_3,2021.2.3,59.82049067488149,
None,ANGRY,white,ANGRY,white,HAPPY,white,buttonA,20.png,22.png,31.png,angry,1,0,1,0,1,0,1,0,,,,,0,58,58,367,1,3,-0.319047619047619,-0.14,1,0,0,buttonA,,,,,2024_Mar_02_1253,Stroop_Squared_all_3,2021.2.3,59.82049067488149,
None,HAPPY,white,HAPPY,white,ANGRY,white,buttonA,29.png,20.png,17.png,happy,1,0,1,0,1,0,1,0,,,,,0,59,59,48,1,4,-0.319047619047619,-0.14,1,0,0,buttonA,,,,,2024_Mar_02_1253,Stroop_Squared_all_3,2021.2.3,59.82049067488149,
None,HAPPY,white,HAPPY,white,ANGRY,white,buttonB,20.png,26.png,29.png,angry,1,0,1,0,1,0,1,0,,,,,0,60,60,110,0,3,-0.319047619047619,-0.14,1,0,0,buttonA,,,,,2024_Mar_02_1253,Stroop_Squared_all_3,2021.2.3,59.82049067488149,
None,HAPPY,white,HAPPY,white,ANGRY,white,buttonB,22.png,28.png,27.png,angry,1,0,1,0,1,0,1,0,,,,,0,61,61,142,0,2,-0.319047619047619,-0.14,1,0,0,buttonA,,,,,2024_Mar_02_1253,Stroop_Squared_all_3,2021.2.3,59.82049067488149,
None,HAPPY,white,HAPPY,white,ANGRY,white,buttonA,31.png,23.png,28.png,happy,1,0,1,0,1,0,1,0,,,,,0,62,62,9,0,1,0.28095238095238095,-0.1657142857142857,1,0,0,buttonB,,,,,2024_Mar_02_1253,Stroop_Squared_all_3,2021.2.3,59.82049067488149,
None,HAPPY,white,HAPPY,white,ANGRY,white,buttonA,25.png,29.png,26.png,happy,1,0,1,0,1,0,1,0,,,,,0,63,63,38,0,0,0.28095238095238095,-0.1657142857142857,1,0,0,buttonB,,,,,2024_Mar_02_1253,Stroop_Squared_all_3,2021.2.3,59.82049067488149,
None,HAPPY,white,ANGRY,white,HAPPY,white,buttonB,25.png,19.png,22.png,happy,1,0,1,0,1,0,1,0,,,,,0,64,64,53,1,1,0.34,-0.15047619047619049,1,0,0,buttonB,,,,,2024_Mar_02_1253,Stroop_Squared_all_3,2021.2.3,59.82049067488149,
None,ANGRY,white,ANGRY,white,HAPPY,white,buttonB,29.png,19.png,22.png,happy,1,0,1,0,1,0,1,0,,,,,0,65,65,294,1,2,0.34,-0.15047619047619049,1,0,0,buttonB,,,,,2024_Mar_02_1253,Stroop_Squared_all_3,2021.2.3,59.82049067488149,
None,ANGRY,white,ANGRY,white,HAPPY,white,buttonA,26.png,27.png,32.png,angry,1,0,1,0,1,0,1,0,,,,,0,66,66,371,1,3,-0.34285714285714286,-0.1676190476190476,1,0,0,buttonA,,,,,2024_Mar_02_1253,Stroop_Squared_all_3,2021.2.3,59.82049067488149,
None,ANGRY,white,HAPPY,white,ANGRY,white,buttonA,25.png,27.png,26.png,happy,1,0,1,0,1,0,1,0,,,,,0,67,67,205,1,4,-0.34285714285714286,-0.1676190476190476,1,0,0,buttonA,,,,,2024_Mar_02_1253,Stroop_Squared_all_3,2021.2.3,59.82049067488149,
None,ANGRY,white,HAPPY,white,ANGRY,white,buttonA,23.png,25.png,24.png,happy,1,0,1,0,1,0,1,0,,,,,0,68,68,232,1,5,-0.34285714285714286,-0.1676190476190476,1,0,0,buttonA,,,,,2024_Mar_02_1253,Stroop_Squared_all_3,2021.2.3,59.82049067488149,
None,ANGRY,white,ANGRY,white,HAPPY,white,buttonB,31.png,30.png,25.png,happy,1,0,1,0,1,0,1,0,,,,,0,69,69,299,0,4,-0.34285714285714286,-0.1676190476190476,1,0,0,buttonA,,,,,2024_Mar_02_1253,Stroop_Squared_all_3,2021.2.3,59.82049067488149,
None,HAPPY,white,HAPPY,white,ANGRY,white,buttonA,17.png,22.png,19.png,happy,1,0,1,0,1,0,1,0,,,,,0,70,70,22,1,5,-0.34285714285714286,-0.1676190476190476,1,0,0,buttonA,,,,,2024_Mar_02_1253,Stroop_Squared_all_3,2021.2.3,59.82049067488149,
None,HAPPY,white,ANGRY,white,HAPPY,white,buttonB,21.png,20.png,25.png,happy,1,0,1,0,1,0,1,0,,,,,0,71,71,60,0,4,-0.34285714285714286,-0.1676190476190476,1,0,0,buttonA,,,,,2024_Mar_02_1253,Stroop_Squared_all_3,2021.2.3,59.82049067488149,
None,ANGRY,white,ANGRY,white,HAPPY,white,buttonA,24.png,26.png,23.png,angry,1,0,1,0,1,0,1,0,,,,,0,72,72,378,1,5,-0.34285714285714286,-0.1676190476190476,1,0,0,buttonA,,,,,2024_Mar_02_1253,Stroop_Squared_all_3,2021.2.3,59.82049067488149,
None,HAPPY,white,HAPPY,white,ANGRY,white,buttonB,32.png,30.png,29.png,angry,1,0,1,0,1,0,1,0,,,,,0,73,73,123,0,4,-0.34285714285714286,-0.1676190476190476,1,0,0,buttonA,,,,,2024_Mar_02_1253,Stroop_Squared_all_3,2021.2.3,59.82049067488149,
None,HAPPY,white,HAPPY,white,ANGRY,white,buttonB,20.png,29.png,30.png,angry,1,0,1,0,1,0,1,0,,,,,0,74,74,109,0,3,-0.34285714285714286,-0.1676190476190476,1,0,0,buttonA,,,,,2024_Mar_02_1253,Stroop_Squared_all_3,2021.2.3,59.82049067488149,
None,HAPPY,white,HAPPY,white,ANGRY,white,buttonA,29.png,18.png,17.png,happy,1,0,1,0,1,0,1,0,,,,,0,75,75,43,1,4,-0.34285714285714286,-0.1676190476190476,1,0,0,buttonA,,,,,2024_Mar_02_1253,Stroop_Squared_all_3,2021.2.3,59.82049067488149,
None,ANGRY,white,HAPPY,white,ANGRY,white,buttonB,22.png,32.png,21.png,angry,1,0,1,0,1,0,1,0,,,,,0,76,76,311,0,3,-0.34285714285714286,-0.1676190476190476,1,0,0,buttonA,,,,,2024_Mar_02_1253,Stroop_Squared_all_3,2021.2.3,59.82049067488149,
None,ANGRY,white,HAPPY,white,ANGRY,white,buttonA,25.png,18.png,27.png,happy,1,0,1,0,1,0,1,0,,,,,0,77,77,200,1,4,-0.37333333333333335,-0.16666666666666666,1,0,0,buttonA,,,,,2024_Mar_02_1253,Stroop_Squared_all_3,2021.2.3,59.82049067488149,
None,HAPPY,white,ANGRY,white,HAPPY,white,buttonA,32.png,23.png,30.png,angry,1,0,1,0,1,0,1,0,,,,,0,78,78,150,1,5,-0.37333333333333335,-0.16666666666666666,1,0,0,buttonA,,,,,2024_Mar_02_1253,Stroop_Squared_all_3,2021.2.3,59.82049067488149,
None,HAPPY,white,HAPPY,white,ANGRY,white,buttonA,25.png,32.png,21.png,happy,1,0,1,0,1,0,1,0,,,,,0,79,79,40,1,6,-0.34285714285714286,-0.1676190476190476,1,0,0,buttonA,,,,,2024_Mar_02_1253,Stroop_Squared_all_3,2021.2.3,59.82049067488149,
None,HAPPY,white,HAPPY,white,ANGRY,white,buttonA,29.png,18.png,25.png,happy,1,0,1,0,1,0,1,0,,,,,0,80,80,23,0,5,0.4180952380952381,-0.15428571428571428,1,0,0,buttonB,,,,,2024_Mar_02_1253,Stroop_Squared_all_3,2021.2.3,59.82049067488149,
None,ANGRY,white,HAPPY,white,ANGRY,white,buttonA,23.png,30.png,31.png,happy,1,0,1,0,1,0,1,0,,,,,0,81,81,217,1,6,-0.42952380952380953,-0.17142857142857143,1,0,0,buttonA,,,,,2024_Mar_02_1253,Stroop_Squared_all_3,2021.2.3,59.82049067488149,
None,ANGRY,white,ANGRY,white,HAPPY,white,buttonA,28.png,19.png,32.png,angry,1,0,1,0,1,0,1,0,,,,,0,82,82,396,0,5,0.4066666666666667,-0.17714285714285713,1,0,0,buttonB,,,,,2024_Mar_02_1253,Stroop_Squared_all_3,2021.2.3,59.82049067488149,
None,ANGRY,white,HAPPY,white,ANGRY,white,buttonA,25.png,23.png,22.png,happy,1,0,1,0,1,0,1,0,,,,,0,83,83,222,1,6,-0.43142857142857144,-0.15714285714285714,1,0,0,buttonA,,,,,2024_Mar_02_1253,Stroop_Squared_all_3,2021.2.3,59.82049067488149,
None,ANGRY,white,HAPPY,white,ANGRY,white,buttonB,28.png,32.png,17.png,angry,1,0,1,0,1,0,1,0,,,,,0,84,84,301,1,7,0.4980952380952381,-0.15619047619047619,1,0,0,buttonB,,,,,2024_Mar_02_1253,Stroop_Squared_all_3,2021.2.3,59.82049067488149,
None,ANGRY,white,ANGRY,white,HAPPY,white,buttonA,24.png,17.png,30.png,angry,1,0,1,0,1,0,1,0,,,,,0,85,85,355,1,8,-0.3019047619047619,-0.16476190476190475,1,0,0,buttonA,,,,,2024_Mar_02_1253,Stroop_Squared_all_3,2021.2.3,59.82049067488149,
None,HAPPY,white,HAPPY,white,ANGRY,white,buttonB,26.png,24.png,17.png,angry,1,0,1,0,1,0,1,0,,,,,0,86,86,113,0,7,-0.3019047619047619,-0.16476190476190475,1,0,0,buttonA,,,,,2024_Mar_02_1253,Stroop_Squared_all_3,2021.2.3,59.82049067488149,
None,ANGRY,white,HAPPY,white,ANGRY,white,buttonB,30.png,28.png,23.png,angry,1,0,1,0,1,0,1,0,,,,,0,87,87,321,0,6,-0.3019047619047619,-0.16476190476190475,1,0,0,buttonA,,,,,2024_Mar_02_1253,Stroop_Squared_all_3,2021.2.3,59.82049067488149,
None,ANGRY,white,HAPPY,white,ANGRY,white,buttonB,18.png,25.png,30.png,angry,1,0,1,0,1,0,1,0,,,,,0,88,88,310,0,5,-0.3019047619047619,-0.16476190476190475,1,0,0,buttonA,,,,,2024_Mar_02_1253,Stroop_Squared_all_3,2021.2.3,59.82049067488149,
None,ANGRY,white,ANGRY,white,HAPPY,white,buttonB,17.png,29.png,26.png,happy,1,0,1,0,1,0,1,0,,,,,0,89,89,258,0,4,-0.3019047619047619,-0.16476190476190475,1,0,0,buttonA,,,,,2024_Mar_02_1253,Stroop_Squared_all_3,2021.2.3,59.82049067488149,
None,ANGRY,white,ANGRY,white,HAPPY,white,buttonB,25.png,28.png,17.png,happy,1,0,1,0,1,0,1,0,,,,,0,90,90,279,0,3,-0.3019047619047619,-0.16476190476190475,1,0,0,buttonA,,,,,2024_Mar_02_1253,Stroop_Squared_all_3,2021.2.3,59.82049067488149,
None,HAPPY,white,HAPPY,white,ANGRY,white,buttonB,22.png,31.png,28.png,angry,1,0,1,0,1,0,1,0,,,,,0,91,91,103,0,2,-0.3019047619047619,-0.16476190476190475,1,0,0,buttonA,,,,,2024_Mar_02_1253,Stroop_Squared_all_3,2021.2.3,59.82049067488149,
None,HAPPY,white,HAPPY,white,ANGRY,white,buttonA,25.png,19.png,26.png,happy,1,0,1,0,1,0,1,0,,,,,0,92,92,8,1,3,-0.3019047619047619,-0.16476190476190475,1,0,0,buttonA,,,,,2024_Mar_02_1253,Stroop_Squared_all_3,2021.2.3,59.82049067488149,
None,HAPPY,white,ANGRY,white,HAPPY,white,buttonB,23.png,25.png,18.png,happy,1,0,1,0,1,0,1,0,,,,,0,93,93,86,0,2,-0.3019047619047619,-0.16476190476190475,1,0,0,buttonA,,,,,2024_Mar_02_1253,Stroop_Squared_all_3,2021.2.3,59.82049067488149,
None,HAPPY,white,ANGRY,white,HAPPY,white,buttonA,28.png,20.png,17.png,angry,1,0,1,0,1,0,1,0,,,,,0,94,94,161,1,3,-0.3019047619047619,-0.16476190476190475,1,0,0,buttonA,,,,,2024_Mar_02_1253,Stroop_Squared_all_3,2021.2.3,59.82049067488149,
None,ANGRY,white,ANGRY,white,HAPPY,white,buttonB,31.png,25.png,28.png,happy,1,0,1,0,1,0,1,0,,,,,0,95,95,264,0,2,-0.3019047619047619,-0.16476190476190475,1,0,0,buttonA,,,,,2024_Mar_02_1253,Stroop_Squared_all_3,2021.2.3,59.82049067488149,
None,HAPPY,white,ANGRY,white,HAPPY,white,buttonA,28.png,17.png,18.png,angry,1,0,1,0,1,0,1,0,,,,,0,96,96,197,1,3,-0.3019047619047619,-0.16476190476190475,1,0,0,buttonA,,,,,2024_Mar_02_1253,Stroop_Squared_all_3,2021.2.3,59.82049067488149,
None,HAPPY,white,ANGRY,white,HAPPY,white,buttonA,28.png,26.png,19.png,angry,1,0,1,0,1,0,1,0,,,,,0,97,97,181,0,2,0.5657142857142857,-0.15619047619047619,1,0,0,buttonB,,,,,2024_Mar_02_1253,Stroop_Squared_all_3,2021.2.3,59.82049067488149,
None,ANGRY,white,ANGRY,white,HAPPY,white,buttonB,23.png,21.png,32.png,happy,1,0,1,0,1,0,1,0,,,,,0,98,98,291,1,3,0.5657142857142857,-0.15714285714285714,1,0,0,buttonB,,,,,2024_Mar_02_1253,Stroop_Squared_all_3,2021.2.3,59.82049067488149,
None,HAPPY,white,ANGRY,white,HAPPY,white,buttonB,17.png,24.png,29.png,happy,1,0,1,0,1,0,1,0,,,,,0,99,99,58,1,4,0.5657142857142857,-0.15714285714285714,1,0,0,buttonB,,,,,2024_Mar_02_1253,Stroop_Squared_all_3,2021.2.3,59.82049067488149,
None,HAPPY,white,ANGRY,white,HAPPY,white,buttonA,28.png,27.png,32.png,angry,1,0,1,0,1,0,1,0,,,,,0,100,100,176,0,3,0.5657142857142857,-0.15714285714285714,1,0,0,buttonB,,,,,2024_Mar_02_1253,Stroop_Squared_all_3,2021.2.3,59.82049067488149,
None,ANGRY,white,ANGRY,white,HAPPY,white,buttonA,18.png,27.png,22.png,angry,1,0,1,0,1,0,1,0,,,,,0,101,101,360,0,2,0.5657142857142857,-0.15714285714285714,1,0,0,buttonB,,,,,2024_Mar_02_1253,Stroop_Squared_all_3,2021.2.3,59.82049067488149,
None,HAPPY,white,HAPPY,white,ANGRY,white,buttonA,21.png,27.png,30.png,happy,1,0,1,0,1,0,1,0,,,,,0,102,102,15,1,3,-0.4847619047619048,-0.1838095238095238,1,0,0,buttonA,,,,,2024_Mar_02_1253,Stroop_Squared_all_3,2021.2.3,59.82049067488149,
None,ANGRY,white,HAPPY,white,ANGRY,white,buttonA,27.png,22.png,23.png,happy,1,0,1,0,1,0,1,0,,,,,0,103,103,245,1,4,-0.4847619047619048,-0.1838095238095238,1,0,0,buttonA,,,,,2024_Mar_02_1253,Stroop_Squared_all_3,2021.2.3,59.82049067488149,
None,HAPPY,white,ANGRY,white,HAPPY,white,buttonB,25.png,29.png,32.png,happy,1,0,1,0,1,0,1,0,,,,,0,104,104,85,0,3,-0.4847619047619048,-0.1838095238095238,1,0,0,buttonA,,,,,2024_Mar_02_1253,Stroop_Squared_all_3,2021.2.3,59.82049067488149,
None,HAPPY,white,ANGRY,white,HAPPY,white,buttonA,18.png,29.png,22.png,angry,1,0,1,0,1,0,1,0,,,,,0,105,105,156,0,2,0.5485714285714286,-0.2,1,0,0,buttonB,,,,,2024_Mar_02_1253,Stroop_Squared_all_3,2021.2.3,59.82049067488149,
None,ANGRY,white,ANGRY,white,HAPPY,white,buttonA,20.png,25.png,26.png,angry,1,0,1,0,1,0,1,0,,,,,0,106,106,376,1,3,-0.3923809523809524,-0.15047619047619049,1,0,0,buttonA,,,,,2024_Mar_02_1253,Stroop_Squared_all_3,2021.2.3,59.82049067488149,
None,ANGRY,white,HAPPY,white,ANGRY,white,buttonB,30.png,21.png,32.png,angry,1,0,1,0,1,0,1,0,,,,,0,107,107,317,1,4,0.4723809523809524,-0.14285714285714285,1,0,0,buttonB,,,,,2024_Mar_02_1253,Stroop_Squared_all_3,2021.2.3,59.82049067488149,
None,ANGRY,white,ANGRY,white,HAPPY,white,buttonA,24.png,30.png,23.png,angry,1,0,1,0,1,0,1,0,,,,,0,108,108,394,1,5,-0.38095238095238093,-0.12857142857142856,1,0,0,buttonA,,,,,2024_Mar_02_1253,Stroop_Squared_all_3,2021.2.3,59.82049067488149,
None,ANGRY,white,ANGRY,white,HAPPY,white,buttonB,21.png,32.png,29.png,happy,1,0,1,0,1,0,1,0,,,,,0,109,109,276,1,6,0.42095238095238097,-0.15428571428571428,1,0,0,buttonB,,,,,2024_Mar_02_1253,Stroop_Squared_all_3,2021.2.3,59.82049067488149,
None,HAPPY,white,ANGRY,white,HAPPY,white,buttonA,20.png,32.png,23.png,angry,1,0,1,0,1,0,1,0,,,,,0,110,110,168,1,7,-0.3019047619047619,-0.14761904761904762,1,0,0,buttonA,,,,,2024_Mar_02_1253,Stroop_Squared_all_3,2021.2.3,59.82049067488149,
None,ANGRY,white,HAPPY,white,ANGRY,white,buttonA,27.png,20.png,29.png,happy,1,0,1,0,1,0,1,0,,,,,0,111,111,212,1,8,-0.3019047619047619,-0.14761904761904762,1,0,0,buttonA,,,,,2024_Mar_02_1253,Stroop_Squared_all_3,2021.2.3,59.82049067488149,
None,ANGRY,white,HAPPY,white,ANGRY,white,buttonA,17.png,29.png,28.png,happy,1,0,1,0,1,0,1,0,,,,,0,112,112,202,1,9,-0.3019047619047619,-0.14761904761904762,1,0,0,buttonA,,,,,2024_Mar_02_1253,Stroop_Squared_all_3,2021.2.3,59.82049067488149,
None,ANGRY,white,HAPPY,white,ANGRY,white,buttonA,27.png,18.png,23.png,happy,1,0,1,0,1,0,1,0,,,,,0,113,113,247,1,10,-0.3019047619047619,-0.14761904761904762,1,0,0,buttonA,,,,,2024_Mar_02_1253,Stroop_Squared_all_3,2021.2.3,59.82049067488149,
None,HAPPY,white,ANGRY,white,HAPPY,white,buttonB,21.png,23.png,32.png,happy,1,0,1,0,1,0,1,0,,,,,0,114,114,62,0,9,-0.3019047619047619,-0.14761904761904762,1,0,0,buttonA,,,,,2024_Mar_02_1253,Stroop_Squared_all_3,2021.2.3,59.82049067488149,
None,HAPPY,white,ANGRY,white,HAPPY,white,buttonB,19.png,30.png,17.png,happy,1,0,1,0,1,0,1,0,,,,,0,115,115,51,0,8,-0.3019047619047619,-0.14761904761904762,1,0,0,buttonA,,,,,2024_Mar_02_1253,Stroop_Squared_all_3,2021.2.3,59.82049067488149,
None,ANGRY,white,HAPPY,white,ANGRY,white,buttonA,31.png,18.png,25.png,happy,1,0,1,0,1,0,1,0,,,,,0,116,116,246,1,9,-0.3019047619047619,-0.14761904761904762,1,0,0,buttonA,,,,,2024_Mar_02_1253,Stroop_Squared_all_3,2021.2.3,59.82049067488149,
None,ANGRY,white,ANGRY,white,HAPPY,white,buttonA,18.png,26.png,19.png,angry,1,0,1,0,1,0,1,0,,,,,0,117,117,374,1,10,-0.3019047619047619,-0.14761904761904762,1,0,0,buttonA,,,,,2024_Mar_02_1253,Stroop_Squared_all_3,2021.2.3,59.82049067488149,
None,HAPPY,white,HAPPY,white,ANGRY,white,buttonA,23.png,31.png,24.png,happy,1,0,1,0,1,0,1,0,,,,,0,118,118,19,1,11,-0.3019047619047619,-0.14761904761904762,1,0,0,buttonA,,,,,2024_Mar_02_1253,Stroop_Squared_all_3,2021.2.3,59.82049067488149,
None,ANGRY,white,ANGRY,white,HAPPY,white,buttonA,20.png,23.png,30.png,angry,1,0,1,0,1,0,1,0,,,,,0,119,119,354,1,12,-0.3019047619047619,-0.14761904761904762,1,0,0,buttonA,,,,,2024_Mar_02_1253,Stroop_Squared_all_3,2021.2.3,59.82049067488149,
None,ANGRY,white,HAPPY,white,ANGRY,white,buttonB,30.png,19.png,32.png,angry,1,0,1,0,1,0,1,0,,,,,0,120,120,318,0,11,-0.3457142857142857,-0.15523809523809523,1,0,0,buttonA,,,,,2024_Mar_02_1253,Stroop_Squared_all_3,2021.2.3,59.82049067488149,
None,ANGRY,white,ANGRY,white,HAPPY,white,buttonA,30.png,22.png,21.png,angry,1,0,1,0,1,0,1,0,,,,,0,121,121,397,1,12,-0.3457142857142857,-0.15619047619047619,1,0,0,buttonA,,,,,2024_Mar_02_1253,Stroop_Squared_all_3,2021.2.3,59.82049067488149,
None,HAPPY,white,HAPPY,white,ANGRY,white,buttonA,17.png,28.png,23.png,happy,1,0,1,0,1,0,1,0,,,,,0,122,122,29,1,13,-0.3457142857142857,-0.15619047619047619,1,0,0,buttonA,,,,,2024_Mar_02_1253,Stroop_Squared_all_3,2021.2.3,59.82049067488149,
None,ANGRY,white,ANGRY,white,HAPPY,white,buttonB,21.png,32.png,17.png,happy,1,0,1,0,1,0,1,0,,,,,0,123,123,282,0,12,-0.3457142857142857,-0.15619047619047619,1,0,0,buttonA,,,,,2024_Mar_02_1253,Stroop_Squared_all_3,2021.2.3,59.82049067488149,
None,ANGRY,white,HAPPY,white,ANGRY,white,buttonA,19.png,17.png,30.png,happy,1,0,1,0,1,0,1,0,,,,,0,124,124,206,1,13,-0.3457142857142857,-0.15619047619047619,1,0,0,buttonA,,,,,2024_Mar_02_1253,Stroop_Squared_all_3,2021.2.3,59.82049067488149,
None,HAPPY,white,HAPPY,white,ANGRY,white,buttonA,21.png,25.png,28.png,happy,1,0,1,0,1,0,1,0,,,,,0,125,125,5,0,12,0.39904761904761904,-0.17238095238095238,1,0,0,buttonB,,,,,2024_Mar_02_1253,Stroop_Squared_all_3,2021.2.3,59.82049067488149,
None,ANGRY,white,ANGRY,white,HAPPY,white,buttonB,27.png,23.png,22.png,happy,1,0,1,0,1,0,1,0,,,,,0,126,126,255,1,13,0.39904761904761904,-0.17238095238095238,1,0,0,buttonB,,,,,2024_Mar_02_1253,Stroop_Squared_all_3,2021.2.3,59.82049067488149,
None,ANGRY,white,ANGRY,white,HAPPY,white,buttonA,30.png,29.png,24.png,angry,1,0,1,0,1,0,1,0,,,,,0,127,127,358,0,12,0.39904761904761904,-0.17238095238095238,1,0,0,buttonB,,,,,2024_Mar_02_1253,Stroop_Squared_all_3,2021.2.3,59.82049067488149,
None,HAPPY,white,ANGRY,white,HAPPY,white,buttonA,28.png,27.png,24.png,angry,1,0,1,0,1,0,1,0,,,,,0,128,128,153,0,11,0.39904761904761904,-0.17238095238095238,1,0,0,buttonB,,,,,2024_Mar_02_1253,Stroop_Squared_all_3,2021.2.3,59.82049067488149,
None,ANGRY,white,ANGRY,white,HAPPY,white,buttonA,30.png,32.png,31.png,angry,1,0,1,0,1,0,1,0,,,,,0,129,129,393,0,10,0.4,-0.17238095238095238,1,0,0,buttonB,,,,,2024_Mar_02_1253,Stroop_Squared_all_3,2021.2.3,59.82049067488149,
None,ANGRY,white,HAPPY,white,ANGRY,white,buttonB,32.png,27.png,20.png,angry,1,0,1,0,1,0,1,0,,,,,0,130,130,346,1,11,0.3647619047619048,-0.2571428571428571,1,0,0,buttonB,,,,,2024_Mar_02_1253,Stroop_Squared_all_3,2021.2.3,59.82049067488149,
None,HAPPY,white,HAPPY,white,ANGRY,white,buttonA,23.png,22.png,21.png,happy,1,0,1,0,1,0,1,0,,,,,0,131,131,49,0,10,0.34,-0.31238095238095237,1,0,0,buttonB,,,,,2024_Mar_02_1253,Stroop_Squared_all_3,2021.2.3,59.82049067488149,
None,ANGRY,white,ANGRY,white,HAPPY,white,buttonA,26.png,22.png,27.png,angry,1,0,1,0,1,0,1,0,,,,,0,132,132,369,0,9,0.34,-0.31238095238095237,1,0,0,buttonB,,,,,2024_Mar_02_1253,Stroop_Squared_all_3,2021.2.3,59.82049067488149,
None,HAPPY,white,ANGRY,white,HAPPY,white,buttonB,23.png,30.png,21.png,happy,1,0,1,0,1,0,1,0,,,,,0,133,133,77,1,10,0.34,-0.31238095238095237,1,0,0,buttonB,,,,,2024_Mar_02_1253,Stroop_Squared_all_3,2021.2.3,59.82049067488149,
None,HAPPY,white,HAPPY,white,ANGRY,white,buttonA,23.png,26.png,31.png,happy,1,0,1,0,1,0,1,0,,,,,0,134,134,46,0,9,0.34,-0.31238095238095237,1,0,0,buttonB,,,,,2024_Mar_02_1253,Stroop_Squared_all_3,2021.2.3,59.82049067488149,
None,HAPPY,white,ANGRY,white,HAPPY,white,buttonA,24.png,26.png,17.png,angry,1,0,1,0,1,0,1,0,,,,,0,135,135,199,0,8,0.34,-0.31238095238095237,1,0,0,buttonB,,,,,2024_Mar_02_1253,Stroop_Squared_all_3,2021.2.3,59.82049067488149,
None,HAPPY,white,ANGRY,white,HAPPY,white,buttonB,31.png,30.png,23.png,happy,1,0,1,0,1,0,1,0,,,,,0,136,136,91,1,9,0.34,-0.31238095238095237,1,0,0,buttonB,,,,,2024_Mar_02_1253,Stroop_Squared_all_3,2021.2.3,59.82049067488149,
None,ANGRY,white,ANGRY,white,HAPPY,white,buttonB,21.png,20.png,25.png,happy,1,0,1,0,1,0,1,0,,,,,0,137,137,250,1,10,0.34,-0.31238095238095237,1,0,0,buttonB,,,,,2024_Mar_02_1253,Stroop_Squared_all_3,2021.2.3,59.82049067488149,
None,ANGRY,white,HAPPY,white,ANGRY,white,buttonB,30.png,20.png,29.png,angry,1,0,1,0,1,0,1,0,,,,,0,138,138,342,1,11,0.34,-0.31238095238095237,1,0,0,buttonB,,,,,2024_Mar_02_1253,Stroop_Squared_all_3,2021.2.3,59.82049067488149,
None,HAPPY,white,HAPPY,white,ANGRY,white,buttonA,19.png,24.png,27.png,happy,1,0,1,0,1,0,1,0,,,,,0,139,139,34,0,10,0.34,-0.31238095238095237,1,0,0,buttonB,,,,,2024_Mar_02_1253,Stroop_Squared_all_3,2021.2.3,59.82049067488149,
None,HAPPY,white,ANGRY,white,HAPPY,white,buttonA,20.png,29.png,24.png,angry,1,0,1,0,1,0,1,0,,,,,0,140,140,162,0,9,0.34,-0.31238095238095237,1,0,0,buttonB,,,,,2024_Mar_02_1253,Stroop_Squared_all_3,2021.2.3,59.82049067488149,
None,ANGRY,white,HAPPY,white,ANGRY,white,buttonB,24.png,25.png,26.png,angry,1,0,1,0,1,0,1,0,,,,,0,141,141,315,1,10,0.34,-0.31238095238095237,1,0,0,buttonB,,,,,2024_Mar_02_1253,Stroop_Squared_all_3,2021.2.3,59.82049067488149,
None,ANGRY,white,HAPPY,white,ANGRY,white,buttonA,17.png,27.png,30.png,happy,1,0,1,0,1,0,1,0,,,,,0,142,142,233,0,9,0.34,-0.31238095238095237,1,0,0,buttonB,,,,,2024_Mar_02_1253,Stroop_Squared_all_3,2021.2.3,59.82049067488149,
None,ANGRY,white,ANGRY,white,HAPPY,white,buttonA,30.png,19.png,28.png,angry,1,0,1,0,1,0,1,0,,,,,0,143,143,399,1,10,-0.5657142857142857,-0.2419047619047619,1,0,0,buttonA,,,,,2024_Mar_02_1253,Stroop_Squared_all_3,2021.2.3,59.82049067488149,
None,HAPPY,white,ANGRY,white,HAPPY,white,buttonA,32.png,21.png,18.png,angry,1,0,1,0,1,0,1,0,,,,,0,144,144,178,0,9,0.4895238095238095,-0.2276190476190476,1,0,0,buttonB,,,,,2024_Mar_02_1253,Stroop_Squared_all_3,2021.2.3,59.82049067488149,
None,HAPPY,white,ANGRY,white,HAPPY,white,buttonB,25.png,22.png,17.png,happy,1,0,1,0,1,0,1,0,,,,,0,145,145,57,0,8,-0.41333333333333333,-0.20761904761904762,1,0,0,buttonA,,,,,2024_Mar_02_1253,Stroop_Squared_all_3,2021.2.3,59.82049067488149,
None,HAPPY,white,ANGRY,white,HAPPY,white,buttonA,24.png,17.png,22.png,angry,1,0,1,0,1,0,1,0,,,,,0,146,146,165,0,7,0.40190476190476193,-0.18857142857142858,1,0,0,buttonB,,,,,2024_Mar_02_1253,Stroop_Squared_all_3,2021.2.3,59.82049067488149,
None,ANGRY,white,HAPPY,white,ANGRY,white,buttonA,17.png,18.png,21.png,happy,1,0,1,0,1,0,1,0,,,,,0,147,147,213,1,8,-0.3323809523809524,-0.1761904761904762,1,0,0,buttonA,,,,,2024_Mar_02_1253,Stroop_Squared_all_3,2021.2.3,59.82049067488149,
None,ANGRY,white,ANGRY,white,HAPPY,white,buttonA,30.png,20.png,19.png,angry,1,0,1,0,1,0,1,0,,,,,0,148,148,364,0,7,0.5161904761904762,-0.17904761904761904,1,0,0,buttonB,,,,,2024_Mar_02_1253,Stroop_Squared_all_3,2021.2.3,59.82049067488149,
None,HAPPY,white,HAPPY,white,ANGRY,white,buttonA,17.png,22.png,31.png,happy,1,0,1,0,1,0,1,0,,,,,0,149,149,25,1,8,-0.37714285714285717,-0.1761904761904762,1,0,0,buttonA,,,,,2024_Mar_02_1253,Stroop_Squared_all_3,2021.2.3,59.82049067488149,
None,ANGRY,white,HAPPY,white,ANGRY,white,buttonB,26.png,29.png,20.png,angry,1,0,1,0,1,0,1,0,,,,,0,150,150,331,1,9,0.5495238095238095,-0.1761904761904762,1,0,0,buttonB,,,,,2024_Mar_02_1253,Stroop_Squared_all_3,2021.2.3,59.82049067488149,
None,ANGRY,white,HAPPY,white,ANGRY,white,buttonB,28.png,25.png,24.png,angry,1,0,1,0,1,0,1,0,,,,,0,151,151,344,0,8,-0.38761904761904764,-0.1742857142857143,1,0,0,buttonA,,,,,2024_Mar_02_1253,Stroop_Squared_all_3,2021.2.3,59.82049067488149,
None,HAPPY,white,ANGRY,white,HAPPY,white,buttonB,21.png,22.png,23.png,happy,1,0,1,0,1,0,1,0,,,,,0,152,152,84,1,9,0.5580952380952381,-0.16952380952380952,1,0,0,buttonB,,,,,2024_Mar_02_1253,Stroop_Squared_all_3,2021.2.3,59.82049067488149,
None,ANGRY,white,HAPPY,white,ANGRY,white,buttonB,22.png,28.png,17.png,angry,1,0,1,0,1,0,1,0,,,,,0,153,153,319,0,8,-0.379047619047619,-0.15619047619047619,1,0,0,buttonA,,,,,2024_Mar_02_1253,Stroop_Squared_all_3,2021.2.3,59.82049067488149,
None,ANGRY,white,ANGRY,white,HAPPY,white,buttonB,23.png,25.png,28.png,happy,1,0,1,0,1,0,1,0,,,,,0,154,154,281,1,9,0.4780952380952381,-0.17238095238095238,1,0,0,buttonB,,,,,2024_Mar_02_1253,Stroop_Squared_all_3,2021.2.3,59.82049067488149,
None,HAPPY,white,ANGRY,white,HAPPY,white,buttonA,32.png,22.png,25.png,angry,1,0,1,0,1,0,1,0,,,,,0,155,155,195,1,10,-0.4,-0.12380952380952381,1,0,0,buttonA,,,,,2024_Mar_02_1253,Stroop_Squared_all_3,2021.2.3,59.82049067488149,
None,HAPPY,white,HAPPY,white,ANGRY,white,buttonA,23.png,24.png,25.png,happy,1,0,1,0,1,0,1,0,,,,,0,156,156,45,0,9,0.5371428571428571,-0.16095238095238096,1,0,0,buttonB,,,,,2024_Mar_02_1253,Stroop_Squared_all_3,2021.2.3,59.82049067488149,
None,ANGRY,white,ANGRY,white,HAPPY,white,buttonB,27.png,22.png,31.png,happy,1,0,1,0,1,0,1,0,,,,,0,157,157,277,0,8,-0.43714285714285717,-0.12571428571428572,1,0,0,buttonA,,,,,2024_Mar_02_1253,Stroop_Squared_all_3,2021.2.3,59.82049067488149,
None,HAPPY,white,ANGRY,white,HAPPY,white,buttonA,28.png,30.png,25.png,angry,1,0,1,0,1,0,1,0,,,,,0,158,158,173,1,9,-0.54,-0.1295238095238095,1,0,0,buttonA,,,,,2024_Mar_02_1253,Stroop_Squared_all_3,2021.2.3,59.82049067488149,
None,ANGRY,white,ANGRY,white,HAPPY,white,buttonB,25.png,20.png,23.png,happy,1,0,1,0,1,0,1,0,,,,,0,159,159,273,0,8,-0.54,-0.1295238095238095,1,0,0,buttonA,,,,,2024_Mar_02_1253,Stroop_Squared_all_3,2021.2.3,59.82049067488149,
None,ANGRY,white,ANGRY,white,HAPPY,white,buttonA,28.png,17.png,32.png,angry,1,0,1,0,1,0,1,0,,,,,0,160,160,395,1,9,-0.539047619047619,-0.1295238095238095,1,0,0,buttonA,,,,,2024_Mar_02_1253,Stroop_Squared_all_3,2021.2.3,59.82049067488149,
None,ANGRY,white,HAPPY,white,ANGRY,white,buttonA,31.png,20.png,17.png,happy,1,0,1,0,1,0,1,0,,,,,0,161,161,207,0,8,0.5933333333333334,-0.14,1,0,0,buttonB,,,,,2024_Mar_02_1253,Stroop_Squared_all_3,2021.2.3,59.82049067488149,
None,HAPPY,white,ANGRY,white,HAPPY,white,buttonB,25.png,30.png,23.png,happy,1,0,1,0,1,0,1,0,,,,,0,162,162,87,0,7,-0.41523809523809524,-0.13238095238095238,1,0,0,buttonA,,,,,2024_Mar_02_1253,Stroop_Squared_all_3,2021.2.3,59.82049067488149,
None,ANGRY,white,ANGRY,white,HAPPY,white,buttonB,21.png,28.png,17.png,happy,1,0,1,0,1,0,1,0,,,,,0,163,163,257,1,8,0.6104761904761905,-0.1580952380952381,1,0,0,buttonB,,,,,2024_Mar_02_1253,Stroop_Squared_all_3,2021.2.3,59.82049067488149,
None,HAPPY,white,ANGRY,white,HAPPY,white,buttonB,17.png,24.png,31.png,happy,1,0,1,0,1,0,1,0,,,,,0,164,164,66,0,7,-0.32095238095238093,-0.15333333333333332,1,0,0,buttonA,,,,,2024_Mar_02_1253,Stroop_Squared_all_3,2021.2.3,59.82049067488149,
None,ANGRY,white,HAPPY,white,ANGRY,white,buttonA,25.png,27.png,18.png,happy,1,0,1,0,1,0,1,0,,,,,0,165,165,209,0,6,0.4780952380952381,-0.1742857142857143,1,0,0,buttonB,,,,,2024_Mar_02_1253,Stroop_Squared_all_3,2021.2.3,59.82049067488149,
None,ANGRY,white,HAPPY,white,ANGRY,white,buttonB,26.png,30.png,29.png,angry,1,0,1,0,1,0,1,0,,,,,0,166,166,323,0,5,-0.4,-0.14952380952380953,1,0,0,buttonA,,,,,2024_Mar_02_1253,Stroop_Squared_all_3,2021.2.3,59.82049067488149,
None,HAPPY,white,HAPPY,white,ANGRY,white,buttonA,27.png,22.png,31.png,happy,1,0,1,0,1,0,1,0,,,,,0,167,167,42,0,4,0.6133333333333333,-0.16476190476190475,1,0,0,buttonB,,,,,2024_Mar_02_1253,Stroop_Squared_all_3,2021.2.3,59.82049067488149,
None,HAPPY,white,HAPPY,white,ANGRY,white,buttonB,30.png,22.png,27.png,angry,1,0,1,0,1,0,1,0,,,,,0,168,168,105,0,3,-0.3171428571428571,-0.16857142857142857,1,0,0,buttonA,,,,,2024_Mar_02_1253,Stroop_Squared_all_3,2021.2.3,59.82049067488149,
None,HAPPY,white,HAPPY,white,ANGRY,white,buttonB,30.png,18.png,21.png,angry,1,0,1,0,1,0,1,0,,,,,0,169,169,124,0,2,-0.3171428571428571,-0.16857142857142857,1,0,0,buttonA,,,,,2024_Mar_02_1253,Stroop_Squared_all_3,2021.2.3,59.82049067488149,
None,ANGRY,white,ANGRY,white,HAPPY,white,buttonB,27.png,30.png,17.png,happy,1,0,1,0,1,0,1,0,,,,,0,170,170,288,0,1,-0.3171428571428571,-0.16857142857142857,1,0,0,buttonA,,,,,2024_Mar_02_1253,Stroop_Squared_all_3,2021.2.3,59.82049067488149,
None,ANGRY,white,HAPPY,white,ANGRY,white,buttonB,32.png,26.png,25.png,angry,1,0,1,0,1,0,1,0,,,,,0,171,171,337,0,0,-0.3171428571428571,-0.16857142857142857,1,0,0,buttonA,,,,,2024_Mar_02_1253,Stroop_Squared_all_3,2021.2.3,59.82049067488149,
None,ANGRY,white,ANGRY,white,HAPPY,white,buttonA,18.png,24.png,25.png,angry,1,0,1,0,1,0,1,0,,,,,0,172,172,380,1,1,-0.3171428571428571,-0.16857142857142857,1,0,0,buttonA,,,,,2024_Mar_02_1253,Stroop_Squared_all_3,2021.2.3,59.82049067488149,
None,HAPPY,white,ANGRY,white,HAPPY,white,buttonB,21.png,18.png,27.png,happy,1,0,1,0,1,0,1,0,,,,,0,173,173,98,0,0,-0.3171428571428571,-0.16857142857142857,1,0,0,buttonA,,,,,2024_Mar_02_1253,Stroop_Squared_all_3,2021.2.3,59.82049067488149,
None,ANGRY,white,ANGRY,white,HAPPY,white,buttonB,31.png,26.png,17.png,happy,1,0,1,0,1,0,1,0,,,,,0,174,174,284,0,-1,-0.32285714285714284,-0.18666666666666668,1,0,0,buttonA,,,,,2024_Mar_02_1253,Stroop_Squared_all_3,2021.2.3,59.82049067488149,
None,HAPPY,white,HAPPY,white,ANGRY,white,buttonB,24.png,28.png,31.png,angry,1,0,1,0,1,0,1,0,,,,,0,175,175,104,0,-2,-0.3380952380952381,-0.18857142857142858,1,0,0,buttonA,,,,,2024_Mar_02_1253,Stroop_Squared_all_3,2021.2.3,59.82049067488149,
None,ANGRY,white,HAPPY,white,ANGRY,white,buttonB,24.png,22.png,17.png,angry,1,0,1,0,1,0,1,0,,,,,0,176,176,325,0,-3,-0.3438095238095238,-0.1761904761904762,1,0,0,buttonA,,,,,2024_Mar_02_1253,Stroop_Squared_all_3,2021.2.3,59.82049067488149,
None,ANGRY,white,HAPPY,white,ANGRY,white,buttonB,28.png,25.png,20.png,angry,1,0,1,0,1,0,1,0,,,,,0,177,177,334,0,-4,-0.3438095238095238,-0.1761904761904762,1,0,0,buttonA,,,,,2024_Mar_02_1253,Stroop_Squared_all_3,2021.2.3,59.82049067488149,
None,HAPPY,white,HAPPY,white,ANGRY,white,buttonA,23.png,24.png,25.png,happy,1,0,1,0,1,0,1,0,,,,,0,178,178,18,1,-3,-0.34476190476190477,-0.17333333333333334,1,0,0,buttonA,,,,,2024_Mar_02_1253,Stroop_Squared_all_3,2021.2.3,59.82049067488149,
None,HAPPY,white,HAPPY,white,ANGRY,white,buttonA,21.png,18.png,27.png,happy,1,0,1,0,1,0,1,0,,,,,0,179,179,17,1,-2,-0.3457142857142857,-0.17333333333333334,1,0,0,buttonA,,,,,2024_Mar_02_1253,Stroop_Squared_all_3,2021.2.3,59.82049067488149,
None,ANGRY,white,ANGRY,white,HAPPY,white,buttonA,22.png,30.png,31.png,angry,1,0,1,0,1,0,1,0,,,,,0,180,180,363,1,-1,-0.3466666666666667,-0.17238095238095238,1,0,0,buttonA,,,,,2024_Mar_02_1253,Stroop_Squared_all_3,2021.2.3,59.82049067488149,
None,ANGRY,white,HAPPY,white,ANGRY,white,buttonA,19.png,17.png,30.png,happy,1,0,1,0,1,0,1,0,,,,,0,181,181,237,0,-2,0.2761904761904762,-0.13428571428571429,1,0,0,buttonB,,,,,2024_Mar_02_1253,Stroop_Squared_all_3,2021.2.3,59.82049067488149,
None,ANGRY,white,ANGRY,white,HAPPY,white,buttonB,23.png,30.png,19.png,happy,1,0,1,0,1,0,1,0,,,,,0,182,182,292,1,-1,0.518095238095238,-0.13047619047619047,1,0,0,buttonB,,,,,2024_Mar_02_1253,Stroop_Squared_all_3,2021.2.3,59.82049067488149,
None,ANGRY,white,HAPPY,white,ANGRY,white,buttonB,20.png,31.png,32.png,angry,1,0,1,0,1,0,1,0,,,,,0,183,183,333,1,0,0.518095238095238,-0.13047619047619047,1,0,0,buttonB,,,,,2024_Mar_02_1253,Stroop_Squared_all_3,2021.2.3,59.82049067488149,
None,HAPPY,white,HAPPY,white,ANGRY,white,buttonB,30.png,19.png,26.png,angry,1,0,1,0,1,0,1,0,,,,,0,184,184,148,1,1,0.5095238095238095,-0.13428571428571429,1,0,0,buttonB,,,,,2024_Mar_02_1253,Stroop_Squared_all_3,2021.2.3,59.82049067488149,
None,ANGRY,white,HAPPY,white,ANGRY,white,buttonA,21.png,27.png,20.png,happy,1,0,1,0,1,0,1,0,,,,,0,185,185,216,0,0,0.5095238095238095,-0.13428571428571429,1,0,0,buttonB,,,,,2024_Mar_02_1253,Stroop_Squared_all_3,2021.2.3,59.82049067488149,
None,HAPPY,white,HAPPY,white,ANGRY,white,buttonB,24.png,23.png,20.png,angry,1,0,1,0,1,0,1,0,,,,,0,186,186,139,1,1,0.5095238095238095,-0.13428571428571429,1,0,0,buttonB,,,,,2024_Mar_02_1253,Stroop_Squared_all_3,2021.2.3,59.82049067488149,
None,ANGRY,white,HAPPY,white,ANGRY,white,buttonA,19.png,18.png,21.png,happy,1,0,1,0,1,0,1,0,,,,,0,187,187,238,0,0,0.5095238095238095,-0.13428571428571429,1,0,0,buttonB,,,,,2024_Mar_02_1253,Stroop_Squared_all_3,2021.2.3,59.82049067488149,
None,ANGRY,white,ANGRY,white,HAPPY,white,buttonB,17.png,19.png,24.png,happy,1,0,1,0,1,0,1,0,,,,,0,188,188,283,1,1,0.5095238095238095,-0.13428571428571429,1,0,0,buttonB,,,,,2024_Mar_02_1253,Stroop_Squared_all_3,2021.2.3,59.82049067488149,
None,HAPPY,white,ANGRY,white,HAPPY,white,buttonB,31.png,27.png,30.png,happy,1,0,1,0,1,0,1,0,,,,,0,189,189,63,1,2,0.5095238095238095,-0.13428571428571429,1,0,0,buttonB,,,,,2024_Mar_02_1253,Stroop_Squared_all_3,2021.2.3,59.82049067488149,
None,HAPPY,white,HAPPY,white,ANGRY,white,buttonA,31.png,29.png,24.png,happy,1,0,1,0,1,0,1,0,,,,,0,190,190,28,1,3,-0.36095238095238097,-0.16285714285714287,1,0,0,buttonA,,,,,2024_Mar_02_1253,Stroop_Squared_all_3,2021.2.3,59.82049067488149,
None,HAPPY,white,ANGRY,white,HAPPY,white,buttonA,30.png,23.png,32.png,angry,1,0,1,0,1,0,1,0,,,,,0,191,191,158,1,4,-0.36095238095238097,-0.16285714285714287,1,0,0,buttonA,,,,,2024_Mar_02_1253,Stroop_Squared_all_3,2021.2.3,59.82049067488149,
None,HAPPY,white,HAPPY,white,ANGRY,white,buttonA,31.png,32.png,25.png,happy,1,0,1,0,1,0,1,0,,,,,0,192,192,31,1,5,-0.36095238095238097,-0.16285714285714287,1,0,0,buttonA,,,,,2024_Mar_02_1253,Stroop_Squared_all_3,2021.2.3,59.82049067488149,
None,ANGRY,white,HAPPY,white,ANGRY,white,buttonA,27.png,18.png,29.png,happy,1,0,1,0,1,0,1,0,,,,,0,193,193,211,1,6,-0.36095238095238097,-0.16285714285714287,1,0,0,buttonA,,,,,2024_Mar_02_1253,Stroop_Squared_all_3,2021.2.3,59.82049067488149,
None,HAPPY,white,HAPPY,white,ANGRY,white,buttonA,23.png,30.png,29.png,happy,1,0,1,0,1,0,1,0,,,,,0,194,194,3,1,7,-0.36095238095238097,-0.16285714285714287,1,0,0,buttonA,,,,,2024_Mar_02_1253,Stroop_Squared_all_3,2021.2.3,59.82049067488149,
None,HAPPY,white,ANGRY,white,HAPPY,white,buttonB,23.png,25.png,30.png,happy,1,0,1,0,1,0,1,0,,,,,0,195,195,92,0,6,-0.3742857142857143,-0.15619047619047619,1,0,0,buttonA,,,,,2024_Mar_02_1253,Stroop_Squared_all_3,2021.2.3,59.82049067488149,
None,ANGRY,white,ANGRY,white,HAPPY,white,buttonA,18.png,31.png,20.png,angry,1,0,1,0,1,0,1,0,,,,,0,196,196,356,1,7,-0.3742857142857143,-0.15619047619047619,1,0,0,buttonA,,,,,2024_Mar_02_1253,Stroop_Squared_all_3,2021.2.3,59.82049067488149,
None,HAPPY,white,ANGRY,white,HAPPY,white,buttonB,31.png,30.png,19.png,happy,1,0,1,0,1,0,1,0,,,,,0,197,197,93,0,6,-0.3742857142857143,-0.15619047619047619,1,0,0,buttonA,,,,,2024_Mar_02_1253,Stroop_Squared_all_3,2021.2.3,59.82049067488149,
None,HAPPY,white,HAPPY,white,ANGRY,white,buttonB,26.png,20.png,17.png,angry,1,0,1,0,1,0,1,0,,,,,0,198,198,140,0,5,-0.3742857142857143,-0.15619047619047619,1,0,0,buttonA,,,,,2024_Mar_02_1253,Stroop_Squared_all_3,2021.2.3,59.82049067488149,
None,ANGRY,white,ANGRY,white,HAPPY,white,buttonA,20.png,21.png,24.png,angry,1,0,1,0,1,0,1,0,,,,,0,199,199,382,1,6,-0.3742857142857143,-0.15619047619047619,1,0,0,buttonA,,,,,2024_Mar_02_1253,Stroop_Squared_all_3,2021.2.3,59.82049067488149,
None,ANGRY,white,ANGRY,white,HAPPY,white,buttonB,31.png,19.png,32.png,happy,1,0,1,0,1,0,1,0,,,,,0,200,200,265,0,5,-0.3742857142857143,-0.15619047619047619,1,0,0,buttonA,,,,,2024_Mar_02_1253,Stroop_Squared_all_3,2021.2.3,59.82049067488149,
None,HAPPY,white,ANGRY,white,HAPPY,white,buttonB,19.png,22.png,29.png,happy,1,0,1,0,1,0,1,0,,,,,0,201,201,71,0,4,-0.3742857142857143,-0.15619047619047619,1,0,0,buttonA,,,,,2024_Mar_02_1253,Stroop_Squared_all_3,2021.2.3,59.82049067488149,
None,HAPPY,white,ANGRY,white,HAPPY,white,buttonB,27.png,20.png,25.png,happy,1,0,1,0,1,0,1,0,,,,,0,202,202,83,0,3,-0.3742857142857143,-0.15619047619047619,1,0,0,buttonA,,,,,2024_Mar_02_1253,Stroop_Squared_all_3,2021.2.3,59.82049067488149,
None,HAPPY,white,HAPPY,white,ANGRY,white,buttonA,17.png,20.png,19.png,happy,1,0,1,0,1,0,1,0,,,,,0,203,203,0,1,4,-0.3742857142857143,-0.15619047619047619,1,0,0,buttonA,,,,,2024_Mar_02_1253,Stroop_Squared_all_3,2021.2.3,59.82049067488149,
None,HAPPY,white,ANGRY,white,HAPPY,white,buttonA,18.png,22.png,21.png,angry,1,0,1,0,1,0,1,0,,,,,0,204,204,196,1,5,-0.3742857142857143,-0.15619047619047619,1,0,0,buttonA,,,,,2024_Mar_02_1253,Stroop_Squared_all_3,2021.2.3,59.82049067488149,
None,ANGRY,white,ANGRY,white,HAPPY,white,buttonB,31.png,26.png,17.png,happy,1,0,1,0,1,0,1,0,,,,,0,205,205,262,0,4,-0.3742857142857143,-0.15619047619047619,1,0,0,buttonA,,,,,2024_Mar_02_1253,Stroop_Squared_all_3,2021.2.3,59.82049067488149,
None,HAPPY,white,ANGRY,white,HAPPY,white,buttonB,25.png,27.png,18.png,happy,1,0,1,0,1,0,1,0,,,,,0,206,206,70,0,3,-0.3742857142857143,-0.15619047619047619,1,0,0,buttonA,,,,,2024_Mar_02_1253,Stroop_Squared_all_3,2021.2.3,59.82049067488149,
None,ANGRY,white,ANGRY,white,HAPPY,white,buttonA,22.png,29.png,26.png,angry,1,0,1,0,1,0,1,0,,,,,0,207,207,387,1,4,-0.3742857142857143,-0.15619047619047619,1,0,0,buttonA,,,,,2024_Mar_02_1253,Stroop_Squared_all_3,2021.2.3,59.82049067488149,
None,ANGRY,white,HAPPY,white,ANGRY,white,buttonB,32.png,24.png,25.png,angry,1,0,1,0,1,0,1,0,,,,,0,208,208,313,0,3,-0.3742857142857143,-0.15619047619047619,1,0,0,buttonA,,,,,2024_Mar_02_1253,Stroop_Squared_all_3,2021.2.3,59.82049067488149,
None,ANGRY,white,HAPPY,white,ANGRY,white,buttonB,28.png,26.png,25.png,angry,1,0,1,0,1,0,1,0,,,,,0,209,209,329,0,2,-0.3742857142857143,-0.15619047619047619,1,0,0,buttonA,,,,,2024_Mar_02_1253,Stroop_Squared_all_3,2021.2.3,59.82049067488149,
None,ANGRY,white,HAPPY,white,ANGRY,white,buttonA,31.png,28.png,27.png,happy,1,0,1,0,1,0,1,0,,,,,0,210,210,231,1,3,-0.3742857142857143,-0.15619047619047619,1,0,0,buttonA,,,,,2024_Mar_02_1253,Stroop_Squared_all_3,2021.2.3,59.82049067488149,
None,HAPPY,white,ANGRY,white,HAPPY,white,buttonA,28.png,32.png,17.png,angry,1,0,1,0,1,0,1,0,,,,,0,211,211,174,1,4,-0.3742857142857143,-0.15619047619047619,1,0,0,buttonA,,,,,2024_Mar_02_1253,Stroop_Squared_all_3,2021.2.3,59.82049067488149,
None,ANGRY,white,ANGRY,white,HAPPY,white,buttonB,29.png,28.png,27.png,happy,1,0,1,0,1,0,1,0,,,,,0,212,212,295,0,3,-0.3742857142857143,-0.15619047619047619,1,0,0,buttonA,,,,,2024_Mar_02_1253,Stroop_Squared_all_3,2021.2.3,59.82049067488149,
None,ANGRY,white,ANGRY,white,HAPPY,white,buttonA,20.png,26.png,27.png,angry,1,0,1,0,1,0,1,0,,,,,0,213,213,365,1,4,-0.3742857142857143,-0.15619047619047619,1,0,0,buttonA,,,,,2024_Mar_02_1253,Stroop_Squared_all_3,2021.2.3,59.82049067488149,
None,HAPPY,white,HAPPY,white,ANGRY,white,buttonB,20.png,21.png,26.png,angry,1,0,1,0,1,0,1,0,,,,,0,214,214,146,0,3,-0.3742857142857143,-0.15619047619047619,1,0,0,buttonA,,,,,2024_Mar_02_1253,Stroop_Squared_all_3,2021.2.3,59.82049067488149,
None,HAPPY,white,HAPPY,white,ANGRY,white,buttonB,26.png,17.png,24.png,angry,1,0,1,0,1,0,1,0,,,,,0,215,215,131,0,2,-0.3742857142857143,-0.15619047619047619,1,0,0,buttonA,,,,,2024_Mar_02_1253,Stroop_Squared_all_3,2021.2.3,59.82049067488149,
None,ANGRY,white,HAPPY,white,ANGRY,white,buttonA,29.png,25.png,30.png,happy,1,0,1,0,1,0,1,0,,,,,0,216,216,243,1,3,-0.3742857142857143,-0.15619047619047619,1,0,0,buttonA,,,,,2024_Mar_02_1253,Stroop_Squared_all_3,2021.2.3,59.82049067488149,
None,ANGRY,white,ANGRY,white,HAPPY,white,buttonA,20.png,18.png,17.png,angry,1,0,1,0,1,0,1,0,,,,,0,217,217,370,1,4,-0.3742857142857143,-0.15619047619047619,1,0,0,buttonA,,,,,2024_Mar_02_1253,Stroop_Squared_all_3,2021.2.3,59.82049067488149,
None,HAPPY,white,HAPPY,white,ANGRY,white,buttonA,25.png,24.png,27.png,happy,1,0,1,0,1,0,1,0,,,,,0,218,218,47,1,5,-0.3742857142857143,-0.15619047619047619,1,0,0,buttonA,,,,,2024_Mar_02_1253,Stroop_Squared_all_3,2021.2.3,59.82049067488149,
None,HAPPY,white,ANGRY,white,HAPPY,white,buttonA,24.png,19.png,32.png,angry,1,0,1,0,1,0,1,0,,,,,0,219,219,193,1,6,-0.3742857142857143,-0.15619047619047619,1,0,0,buttonA,,,,,2024_Mar_02_1253,Stroop_Squared_all_3,2021.2.3,59.82049067488149,
None,ANGRY,white,ANGRY,white,HAPPY,white,buttonB,29.png,31.png,24.png,happy,1,0,1,0,1,0,1,0,,,,,0,220,220,259,0,5,-0.3742857142857143,-0.15619047619047619,1,0,0,buttonA,,,,,2024_Mar_02_1253,Stroop_Squared_all_3,2021.2.3,59.82049067488149,
None,ANGRY,white,ANGRY,white,HAPPY,white,buttonA,18.png,30.png,31.png,angry,1,0,1,0,1,0,1,0,,,,,0,221,221,390,1,6,-0.3742857142857143,-0.15619047619047619,1,0,0,buttonA,,,,,2024_Mar_02_1253,Stroop_Squared_all_3,2021.2.3,59.82049067488149,
None,HAPPY,white,ANGRY,white,HAPPY,white,buttonB,27.png,30.png,25.png,happy,1,0,1,0,1,0,1,0,,,,,0,222,222,89,0,5,-0.3742857142857143,-0.15619047619047619,1,0,0,buttonA,,,,,2024_Mar_02_1253,Stroop_Squared_all_3,2021.2.3,59.82049067488149,
None,ANGRY,white,HAPPY,white,ANGRY,white,buttonB,18.png,19.png,24.png,angry,1,0,1,0,1,0,1,0,,,,,0,223,223,340,0,4,-0.3742857142857143,-0.15619047619047619,1,0,0,buttonA,,,,,2024_Mar_02_1253,Stroop_Squared_all_3,2021.2.3,59.82049067488149,
None,HAPPY,white,ANGRY,white,HAPPY,white,buttonA,24.png,32.png,23.png,angry,1,0,1,0,1,0,1,0,,,,,0,224,224,172,1,5,-0.3742857142857143,-0.15619047619047619,1,0,0,buttonA,,,,,2024_Mar_02_1253,Stroop_Squared_all_3,2021.2.3,59.82049067488149,
None,HAPPY,white,ANGRY,white,HAPPY,white,buttonB,27.png,25.png,20.png,happy,1,0,1,0,1,0,1,0,,,,,0,225,225,79,0,4,-0.3742857142857143,-0.15619047619047619,1,0,0,buttonA,,,,,2024_Mar_02_1253,Stroop_Squared_all_3,2021.2.3,59.82049067488149,
None,HAPPY,white,HAPPY,white,ANGRY,white,buttonA,25.png,22.png,31.png,happy,1,0,1,0,1,0,1,0,,,,,0,226,226,41,1,5,-0.3742857142857143,-0.15619047619047619,1,0,0,buttonA,,,,,2024_Mar_02_1253,Stroop_Squared_all_3,2021.2.3,59.82049067488149,
None,HAPPY,white,ANGRY,white,HAPPY,white,buttonA,30.png,18.png,25.png,angry,1,0,1,0,1,0,1,0,,,,,0,227,227,164,1,6,-0.3742857142857143,-0.15523809523809523,1,0,0,buttonA,,,,,2024_Mar_02_1253,Stroop_Squared_all_3,2021.2.3,59.82049067488149,
None,HAPPY,white,HAPPY,white,ANGRY,white,buttonB,26.png,22.png,29.png,angry,1,0,1,0,1,0,1,0,,,,,0,228,228,121,0,5,-0.3742857142857143,-0.15523809523809523,1,0,0,buttonA,,,,,2024_Mar_02_1253,Stroop_Squared_all_3,2021.2.3,59.82049067488149,
None,ANGRY,white,HAPPY,white,ANGRY,white,buttonB,28.png,22.png,29.png,angry,1,0,1,0,1,0,1,0,,,,,0,229,229,309,0,4,-0.3742857142857143,-0.15523809523809523,1,0,0,buttonA,,,,,2024_Mar_02_1253,Stroop_Squared_all_3,2021.2.3,59.82049067488149,
None,ANGRY,white,HAPPY,white,ANGRY,white,buttonB,30.png,32.png,29.png,angry,1,0,1,0,1,0,1,0,,,,,0,230,230,322,0,3,-0.3742857142857143,-0.15523809523809523,1,0,0,buttonA,,,,,2024_Mar_02_1253,Stroop_Squared_all_3,2021.2.3,59.82049067488149,
None,ANGRY,white,HAPPY,white,ANGRY,white,buttonA,31.png,21.png,24.png,happy,1,0,1,0,1,0,1,0,,,,,0,231,231,225,1,4,-0.3742857142857143,-0.15523809523809523,1,0,0,buttonA,,,,,2024_Mar_02_1253,Stroop_Squared_all_3,2021.2.3,59.82049067488149,
None,HAPPY,white,ANGRY,white,HAPPY,white,buttonB,25.png,27.png,20.png,happy,1,0,1,0,1,0,1,0,,,,,0,232,232,82,0,3,-0.3742857142857143,-0.15523809523809523,1,0,0,buttonA,,,,,2024_Mar_02_1253,Stroop_Squared_all_3,2021.2.3,59.82049067488149,
None,HAPPY,white,ANGRY,white,HAPPY,white,buttonB,29.png,28.png,25.png,happy,1,0,1,0,1,0,1,0,,,,,0,233,233,59,0,2,-0.3742857142857143,-0.15523809523809523,1,0,0,buttonA,,,,,2024_Mar_02_1253,Stroop_Squared_all_3,2021.2.3,59.82049067488149,
None,ANGRY,white,ANGRY,white,HAPPY,white,buttonB,21.png,18.png,31.png,happy,1,0,1,0,1,0,1,0,,,,,0,234,234,297,0,1,-0.3742857142857143,-0.15523809523809523,1,0,0,buttonA,,,,,2024_Mar_02_1253,Stroop_Squared_all_3,2021.2.3,59.82049067488149,
None,ANGRY,white,HAPPY,white,ANGRY,white,buttonA,31.png,24.png,17.png,happy,1,0,1,0,1,0,1,0,,,,,0,235,235,241,1,2,-0.3742857142857143,-0.15523809523809523,1,0,0,buttonA,,,,,2024_Mar_02_1253,Stroop_Squared_all_3,2021.2.3,59.82049067488149,
None,HAPPY,white,ANGRY,white,HAPPY,white,buttonB,23.png,25.png,20.png,happy,1,0,1,0,1,0,1,0,,,,,0,236,236,67,0,1,-0.3742857142857143,-0.15523809523809523,1,0,0,buttonA,,,,,2024_Mar_02_1253,Stroop_Squared_all_3,2021.2.3,59.82049067488149,
None,HAPPY,white,ANGRY,white,HAPPY,white,buttonA,28.png,24.png,19.png,angry,1,0,1,0,1,0,1,0,,,,,0,237,237,169,1,2,-0.3742857142857143,-0.15523809523809523,1,0,0,buttonA,,,,,2024_Mar_02_1253,Stroop_Squared_all_3,2021.2.3,59.82049067488149,
None,ANGRY,white,ANGRY,white,HAPPY,white,buttonB,25.png,31.png,18.png,happy,1,0,1,0,1,0,1,0,,,,,0,238,238,270,0,1,-0.3742857142857143,-0.15523809523809523,1,0,0,buttonA,,,,,2024_Mar_02_1253,Stroop_Squared_all_3,2021.2.3,59.82049067488149,
None,ANGRY,white,ANGRY,white,HAPPY,white,buttonB,19.png,32.png,29.png,happy,1,0,1,0,1,0,1,0,,,,,0,239,239,251,0,0,-0.3742857142857143,-0.15523809523809523,1,0,0,buttonA,,,,,2024_Mar_02_1253,Stroop_Squared_all_3,2021.2.3,59.82049067488149,
None,ANGRY,white,ANGRY,white,HAPPY,white,buttonB,17.png,30.png,23.png,happy,1,0,1,0,1,0,1,0,,,,,0,240,240,253,0,-1,-0.3742857142857143,-0.15523809523809523,1,0,0,buttonA,,,,,2024_Mar_02_1253,Stroop_Squared_all_3,2021.2.3,59.82049067488149,
None,HAPPY,white,ANGRY,white,HAPPY,white,buttonB,25.png,23.png,18.png,happy,1,0,1,0,1,0,1,0,,,,,0,241,241,76,1,0,0.6714285714285714,-0.21047619047619048,1,0,0,buttonB,,,,,2024_Mar_02_1253,Stroop_Squared_all_3,2021.2.3,59.82049067488149,
None,HAPPY,white,HAPPY,white,ANGRY,white,buttonA,17.png,25.png,18.png,happy,1,0,1,0,1,0,1,0,,,,,0,242,242,6,0,-1,0.6714285714285714,-0.22380952380952382,1,0,0,buttonB,,,,,2024_Mar_02_1253,Stroop_Squared_all_3,2021.2.3,59.82049067488149,
None,HAPPY,white,HAPPY,white,ANGRY,white,buttonA,29.png,31.png,32.png,happy,1,0,1,0,1,0,1,0,,,,,0,243,243,24,0,-2,0.5333333333333333,-0.22476190476190477,1,0,0,buttonB,,,,,2024_Mar_02_1253,Stroop_Squared_all_3,2021.2.3,59.82049067488149,
None,HAPPY,white,ANGRY,white,HAPPY,white,buttonA,22.png,31.png,20.png,angry,1,0,1,0,1,0,1,0,,,,,0,244,244,152,0,-3,0.5295238095238095,-0.22476190476190477,1,0,0,buttonB,,,,,2024_Mar_02_1253,Stroop_Squared_all_3,2021.2.3,59.82049067488149,
None,HAPPY,white,HAPPY,white,ANGRY,white,buttonB,28.png,21.png,22.png,angry,1,0,1,0,1,0,1,0,,,,,0,245,245,102,1,-2,0.5295238095238095,-0.22476190476190477,1,0,0,buttonB,,,,,2024_Mar_02_1253,Stroop_Squared_all_3,2021.2.3,59.82049067488149,
None,ANGRY,white,ANGRY,white,HAPPY,white,buttonA,20.png,21.png,30.png,angry,1,0,1,0,1,0,1,0,,,,,0,246,246,361,0,-3,0.5304761904761904,-0.22476190476190477,1,0,0,buttonB,,,,,2024_Mar_02_1253,Stroop_Squared_all_3,2021.2.3,59.82049067488149,
None,HAPPY,white,HAPPY,white,ANGRY,white,buttonB,28.png,29.png,20.png,angry,1,0,1,0,1,0,1,0,,,,,0,247,247,143,1,-2,0.5304761904761904,-0.22476190476190477,1,0,0,buttonB,,,,,2024_Mar_02_1253,Stroop_Squared_all_3,2021.2.3,59.82049067488149,
None,ANGRY,white,ANGRY,white,HAPPY,white,buttonB,29.png,28.png,25.png,happy,1,0,1,0,1,0,1,0,,,,,0,248,248,287,1,-1,0.5304761904761904,-0.22476190476190477,1,0,0,buttonB,,,,,2024_Mar_02_1253,Stroop_Squared_all_3,2021.2.3,59.82049067488149,
None,HAPPY,white,ANGRY,white,HAPPY,white,buttonA,24.png,18.png,27.png,angry,1,0,1,0,1,0,1,0,,,,,0,249,249,184,0,-2,0.5304761904761904,-0.22476190476190477,1,0,0,buttonB,,,,,2024_Mar_02_1253,Stroop_Squared_all_3,2021.2.3,59.82049067488149,
None,HAPPY,white,HAPPY,white,ANGRY,white,buttonB,28.png,18.png,31.png,angry,1,0,1,0,1,0,1,0,,,,,0,250,250,136,1,-1,0.5304761904761904,-0.22476190476190477,1,0,0,buttonB,,,,,2024_Mar_02_1253,Stroop_Squared_all_3,2021.2.3,59.82049067488149,
None,HAPPY,white,HAPPY,white,ANGRY,white,buttonB,28.png,32.png,17.png,angry,1,0,1,0,1,0,1,0,,,,,0,251,251,116,1,0,0.5304761904761904,-0.22476190476190477,1,0,0,buttonB,,,,,2024_Mar_02_1253,Stroop_Squared_all_3,2021.2.3,59.82049067488149,
None,ANGRY,white,HAPPY,white,ANGRY,white,buttonA,21.png,26.png,25.png,happy,1,0,1,0,1,0,1,0,,,,,0,252,252,201,0,-1,0.5304761904761904,-0.22476190476190477,1,0,0,buttonB,,,,,2024_Mar_02_1253,Stroop_Squared_all_3,2021.2.3,59.82049067488149,
None,ANGRY,white,HAPPY,white,ANGRY,white,buttonB,28.png,32.png,17.png,angry,1,0,1,0,1,0,1,0,,,,,0,253,253,339,1,0,0.5304761904761904,-0.22476190476190477,1,0,0,buttonB,,,,,2024_Mar_02_1253,Stroop_Squared_all_3,2021.2.3,59.82049067488149,
None,HAPPY,white,ANGRY,white,HAPPY,white,buttonB,23.png,30.png,29.png,happy,1,0,1,0,1,0,1,0,,,,,0,254,254,90,1,1,0.5304761904761904,-0.22476190476190477,1,0,0,buttonB,,,,,2024_Mar_02_1253,Stroop_Squared_all_3,2021.2.3,59.82049067488149,
None,ANGRY,white,ANGRY,white,HAPPY,white,buttonA,24.png,22.png,31.png,angry,1,0,1,0,1,0,1,0,,,,,0,255,255,384,0,0,0.5304761904761904,-0.22476190476190477,1,0,0,buttonB,,,,,2024_Mar_02_1253,Stroop_Squared_all_3,2021.2.3,59.82049067488149,
None,ANGRY,white,HAPPY,white,ANGRY,white,buttonB,28.png,22.png,19.png,angry,1,0,1,0,1,0,1,0,,,,,0,256,256,320,1,1,0.5304761904761904,-0.22476190476190477,1,0,0,buttonB,,,,,2024_Mar_02_1253,Stroop_Squared_all_3,2021.2.3,59.82049067488149,
None,ANGRY,white,HAPPY,white,ANGRY,white,buttonA,17.png,18.png,29.png,happy,1,0,1,0,1,0,1,0,,,,,0,257,257,214,0,0,0.5304761904761904,-0.22476190476190477,1,0,0,buttonB,,,,,2024_Mar_02_1253,Stroop_Squared_all_3,2021.2.3,59.82049067488149,
None,HAPPY,white,ANGRY,white,HAPPY,white,buttonA,22.png,18.png,23.png,angry,1,0,1,0,1,0,1,0,,,,,0,258,258,191,1,1,-0.4847619047619048,-0.1980952380952381,1,0,0,buttonA,,,,,2024_Mar_02_1253,Stroop_Squared_all_3,2021.2.3,59.82049067488149,
None,HAPPY,white,ANGRY,white,HAPPY,white,buttonB,19.png,28.png,23.png,happy,1,0,1,0,1,0,1,0,,,,,0,259,259,55,0,0,-0.4847619047619048,-0.1980952380952381,1,0,0,buttonA,,,,,2024_Mar_02_1253,Stroop_Squared_all_3,2021.2.3,59.82049067488149,
None,HAPPY,white,ANGRY,white,HAPPY,white,buttonB,25.png,20.png,23.png,happy,1,0,1,0,1,0,1,0,,,,,0,260,260,65,1,1,0.6419047619047619,-0.2019047619047619,1,0,0,buttonB,,,,,2024_Mar_02_1253,Stroop_Squared_all_3,2021.2.3,59.82049067488149,
None,HAPPY,white,ANGRY,white,HAPPY,white,buttonA,24.png,29.png,26.png,angry,1,0,1,0,1,0,1,0,,,,,0,261,261,194,1,2,-0.5123809523809524,-0.21619047619047618,1,0,0,buttonA,,,,,2024_Mar_02_1253,Stroop_Squared_all_3,2021.2.3,59.82049067488149,
None,ANGRY,white,HAPPY,white,ANGRY,white,buttonB,18.png,28.png,19.png,angry,1,0,1,0,1,0,1,0,,,,,0,262,262,303,1,3,0.4228571428571429,-0.20857142857142857,1,0,0,buttonB,,,,,2024_Mar_02_1253,Stroop_Squared_all_3,2021.2.3,59.82049067488149,
None,HAPPY,white,ANGRY,white,HAPPY,white,buttonA,20.png,24.png,25.png,angry,1,0,1,0,1,0,1,0,,,,,0,263,263,167,1,4,-0.44285714285714284,-0.19238095238095237,1,0,0,buttonA,,,,,2024_Mar_02_1253,Stroop_Squared_all_3,2021.2.3,59.82049067488149,
None,ANGRY,white,ANGRY,white,HAPPY,white,buttonA,32.png,26.png,21.png,angry,1,0,1,0,1,0,1,0,,,,,0,264,264,391,0,3,0.6047619047619047,-0.2038095238095238,1,0,0,buttonB,,,,,2024_Mar_02_1253,Stroop_Squared_all_3,2021.2.3,59.82049067488149,
None,ANGRY,white,HAPPY,white,ANGRY,white,buttonA,23.png,32.png,27.png,happy,1,0,1,0,1,0,1,0,,,,,0,265,265,208,0,2,0.6523809523809524,-0.19428571428571428,1,0,0,buttonB,,,,,2024_Mar_02_1253,Stroop_Squared_all_3,2021.2.3,59.82049067488149,
None,ANGRY,white,ANGRY,white,HAPPY,white,buttonA,18.png,32.png,17.png,angry,1,0,1,0,1,0,1,0,,,,,0,266,266,383,0,1,0.6257142857142857,-0.20476190476190476,0,0,0,999,,,,,2024_Mar_02_1253,Stroop_Squared_all_3,2021.2.3,59.82049067488149,
None,GAIN,white,LOSS,white,GAIN,white,buttonA,14.png,1.png,4.png,loss,2,0,2,0,0,0,0,0,,,,,0,0,0,166,1,1,-0.6466666666666666,-0.15523809523809523,1,0,0,buttonA,,1,,,2024_Mar_02_1253,Stroop_Squared_all_3,2021.2.3,59.82049067488149,
None,LOSS,white,LOSS,white,GAIN,white,buttonA,16.png,13.png,10.png,loss,2,0,2,0,0,0,0,0,,,,,0,1,1,392,0,0,0.3933333333333333,-0.22380952380952382,1,0,0,buttonB,,,,,2024_Mar_02_1253,Stroop_Squared_all_3,2021.2.3,59.82049067488149,
None,LOSS,white,GAIN,white,LOSS,white,buttonB,10.png,6.png,7.png,loss,2,0,2,0,0,0,0,0,,,,,0,2,2,346,1,1,0.3933333333333333,-0.22380952380952382,1,0,0,buttonB,,,,,2024_Mar_02_1253,Stroop_Squared_all_3,2021.2.3,59.82049067488149,
None,GAIN,white,GAIN,white,LOSS,white,buttonA,15.png,1.png,2.png,gain,2,0,2,0,0,0,0,0,,,,,0,3,3,22,0,0,0.3933333333333333,-0.22380952380952382,1,0,0,buttonB,,,,,2024_Mar_02_1253,Stroop_Squared_all_3,2021.2.3,59.82049067488149,
None,LOSS,white,LOSS,white,GAIN,white,buttonB,3.png,4.png,15.png,gain,2,0,2,0,0,0,0,0,,,,,0,4,4,268,1,1,0.3933333333333333,-0.22380952380952382,1,0,0,buttonB,,,,,2024_Mar_02_1253,Stroop_Squared_all_3,2021.2.3,59.82049067488149,
None,LOSS,white,LOSS,white,GAIN,white,buttonA,6.png,16.png,1.png,loss,2,0,2,0,0,0,0,0,,,,,0,5,5,386,0,0,0.3933333333333333,-0.22380952380952382,1,0,0,buttonB,,,,,2024_Mar_02_1253,Stroop_Squared_all_3,2021.2.3,59.82049067488149,
None,LOSS,white,GAIN,white,LOSS,white,buttonA,7.png,13.png,8.png,gain,2,0,2,0,0,0,0,0,,,,,0,6,6,206,1,1,-0.6142857142857143,-0.20952380952380953,1,0,0,buttonA,,,,,2024_Mar_02_1253,Stroop_Squared_all_3,2021.2.3,59.82049067488149,
None,GAIN,white,LOSS,white,GAIN,white,buttonA,8.png,6.png,9.png,loss,2,0,2,0,0,0,0,0,,,,,0,7,7,183,0,0,0.46476190476190476,-0.2438095238095238,1,0,0,buttonB,,,,,2024_Mar_02_1253,Stroop_Squared_all_3,2021.2.3,59.82049067488149,
None,LOSS,white,GAIN,white,LOSS,white,buttonA,13.png,14.png,7.png,gain,2,0,2,0,0,0,0,0,,,,,0,8,8,217,1,1,-0.6371428571428571,-0.24285714285714285,1,0,0,buttonA,,,,,2024_Mar_02_1253,Stroop_Squared_all_3,2021.2.3,59.82049067488149,
None,GAIN,white,LOSS,white,GAIN,white,buttonB,13.png,1.png,2.png,gain,2,0,2,0,0,0,0,0,,,,,0,9,9,89,0,0,-0.36,-0.1980952380952381,1,0,0,buttonA,,,,,2024_Mar_02_1253,Stroop_Squared_all_3,2021.2.3,59.82049067488149,
None,LOSS,white,GAIN,white,LOSS,white,buttonA,5.png,10.png,1.png,gain,2,0,2,0,0,0,0,0,,,,,0,10,10,231,1,1,-0.36,-0.1980952380952381,1,0,0,buttonA,,,,,2024_Mar_02_1253,Stroop_Squared_all_3,2021.2.3,59.82049067488149,
None,LOSS,white,LOSS,white,GAIN,white,buttonA,8.png,11.png,12.png,loss,2,0,2,0,0,0,0,0,,,,,0,11,11,353,1,2,-0.36,-0.1980952380952381,1,0,0,buttonA,,,,,2024_Mar_02_1253,Stroop_Squared_all_3,2021.2.3,59.82049067488149,
None,GAIN,white,GAIN,white,LOSS,white,buttonB,2.png,5.png,10.png,loss,2,0,2,0,0,0,0,0,,,,,0,12,12,132,0,1,-0.36,-0.1980952380952381,1,0,0,buttonA,,,,,2024_Mar_02_1253,Stroop_Squared_all_3,2021.2.3,59.82049067488149,
